<?xml version="1.0" encoding="UTF-8"?><?xml-stylesheet type="text/xsl" href="define2-0-0.xsl"?>
<ODM xmlns="http://www.cdisc.org/ns/odm/v1.3" xmlns:def="http://www.cdisc.org/ns/def/v2.0" xmlns:xlink="http://www.w3.org/1999/xlink" AsOfDateTime="2020-08-19T17:03:37" CreationDateTime="2020-08-19T17:03:37" FileOID="define" FileType="Snapshot" ODMVersion="1.3.2" Originator="GlaxoSmithKline" SourceSystem="DISPatch" SourceSystemVersion="1.0.0">
   <Study OID="201584">
      <GlobalVariables>
         <StudyName>201584</StudyName>
         <StudyDescription>A Phase III, Randomized, Multicenter, Parallel-group, Open-Label Study Evaluating the Efficacy, Safety, and Tolerability of Long-Acting Intramuscular Cabotegravir and Rilpivirine for Maintenance of Virologic Suppression Following Switch from an Integrase Inhibitor Single Tablet Regimen in HIV-1 Infected Antiretroviral Therapy Naive Adult Participants</StudyDescription><ProtocolName>201584</ProtocolName>
      </GlobalVariables>
      <MetaDataVersion Description="Study 201584, Data Definitions" Name="Study 201584, Data Definitions" OID="MDV.201584.SDTMIG.3.1.3.SDTM.1.3" def:DefineVersion="2.0.0" def:StandardName="SDTM-IG" def:StandardVersion="3.1.3"><def:AnnotatedCRF>
            <def:DocumentRef leafID="LF.acrf"/>
         </def:AnnotatedCRF><def:SupplementalDoc>
            <def:DocumentRef leafID="LF.ReviewersGuide"/>
         </def:SupplementalDoc><def:ValueListDef OID="VL.CC.CCORRES"><ItemRef ItemOID="IT.CC.CCORRES.CHIVC301" Mandatory="No" OrderNumber="1">
               <def:WhereClauseRef WhereClauseOID="WC.CC.CCTESTCD.CHIVC301"/>
            </ItemRef><ItemRef ItemOID="IT.CC.CCORRES.NYHA0101" Mandatory="No" OrderNumber="2">
               <def:WhereClauseRef WhereClauseOID="WC.CC.CCTESTCD.NYHA0101"/>
            </ItemRef></def:ValueListDef><def:ValueListDef OID="VL.CO.COVAL"><ItemRef ItemOID="IT.CO.RDOMAIN.EG" Mandatory="No" OrderNumber="1"><def:WhereClauseRef WhereClauseOID="WC.CO.RDOMAIN.EG"/></ItemRef><ItemRef ItemOID="IT.CO.RDOMAIN.FAREFID" Mandatory="No" OrderNumber="2"><def:WhereClauseRef WhereClauseOID="WC.CO.RDOMAIN.FAREFID"/></ItemRef><ItemRef ItemOID="IT.CO.RDOMAIN.FASPID" Mandatory="No" OrderNumber="3"><def:WhereClauseRef WhereClauseOID="WC.CO.RDOMAIN.FASPID"/></ItemRef><ItemRef ItemOID="IT.CO.RDOMAIN.LB" Mandatory="No" OrderNumber="4"><def:WhereClauseRef WhereClauseOID="WC.CO.RDOMAIN.LB"/></ItemRef><ItemRef ItemOID="IT.CO.RDOMAIN.PC" Mandatory="No" OrderNumber="5"><def:WhereClauseRef WhereClauseOID="WC.CO.RDOMAIN.PC"/></ItemRef><ItemRef ItemOID="IT.CO.RDOMAIN.PF" Mandatory="No" OrderNumber="6"><def:WhereClauseRef WhereClauseOID="WC.CO.RDOMAIN.PF"/></ItemRef></def:ValueListDef><def:ValueListDef OID="VL.CV.CVORRES"><ItemRef ItemOID="IT.CV.CVORRES.APEARVAL" Mandatory="No" OrderNumber="1">
               <def:WhereClauseRef WhereClauseOID="WC.CV.CVTESTCD.APEARVAL"/>
            </ItemRef><ItemRef ItemOID="IT.CV.CVORRES.CVALL" Mandatory="No" OrderNumber="2">
               <def:WhereClauseRef WhereClauseOID="WC.CV.CVTESTCD.CVALL"/>
            </ItemRef><ItemRef ItemOID="IT.CV.CVORRES.CVCATH" Mandatory="No" OrderNumber="3"><def:WhereClauseRef WhereClauseOID="WC.CV.CVTESTCD.CVCATH"/></ItemRef><ItemRef ItemOID="IT.CV.CVORRES.CVLREGTS" Mandatory="No" OrderNumber="4"><def:WhereClauseRef WhereClauseOID="WC.CV.CVTESTCD.CVLREGTS"/></ItemRef><ItemRef ItemOID="IT.CV.CVORRES.CVLSTNS" Mandatory="No" OrderNumber="5"><def:WhereClauseRef WhereClauseOID="WC.CV.CVTESTCD.CVLSTNS"/></ItemRef><ItemRef ItemOID="IT.CV.CVORRES.CVRGIND" Mandatory="No" OrderNumber="6">
               <def:WhereClauseRef WhereClauseOID="WC.CV.CVTESTCD.CVRGIND"/>
            </ItemRef><ItemRef ItemOID="IT.CV.CVORRES.CXRPULHY" Mandatory="No" OrderNumber="7"><def:WhereClauseRef WhereClauseOID="WC.CV.CVTESTCD.CXRPULHY"/></ItemRef><ItemRef ItemOID="IT.CV.CVORRES.DIAIRNP" Mandatory="No" OrderNumber="8"><def:WhereClauseRef WhereClauseOID="WC.CV.CVTESTCD.DIAIRNP"/></ItemRef><ItemRef ItemOID="IT.CV.CVORRES.DVTCONS" Mandatory="No" OrderNumber="9"><def:WhereClauseRef WhereClauseOID="WC.CV.CVTESTCD.DVTCONS"/></ItemRef><ItemRef ItemOID="IT.CV.CVORRES.ECHPULHY" Mandatory="No" OrderNumber="10"><def:WhereClauseRef WhereClauseOID="WC.CV.CVTESTCD.ECHPULHY"/></ItemRef><ItemRef ItemOID="IT.CV.CVORRES.EJFRACEV" Mandatory="No" OrderNumber="11"><def:WhereClauseRef WhereClauseOID="WC.CV.CVTESTCD.EJRACEV"/></ItemRef><ItemRef ItemOID="IT.CV.CVORRES.EJFRCASS" Mandatory="No" OrderNumber="12">
               <def:WhereClauseRef WhereClauseOID="WC.CV.CVTESTCD.EJFRCASS"/>
            </ItemRef><ItemRef ItemOID="IT.CV.CVORRES.EJFRCPER" Mandatory="No" OrderNumber="13"><def:WhereClauseRef WhereClauseOID="WC.CV.CVTESTCD.EJFRCPER"/></ItemRef><ItemRef ItemOID="IT.CV.CVORRES.ELEVATDD" Mandatory="No" OrderNumber="14"><def:WhereClauseRef WhereClauseOID="WC.CV.CVTESTCD.ELEVATDD"/></ItemRef><ItemRef ItemOID="IT.CV.CVORRES.EVACUTE" Mandatory="No" OrderNumber="15"><def:WhereClauseRef WhereClauseOID="WC.CV.CVTESTCD.EVACUTE"/></ItemRef><ItemRef ItemOID="IT.CV.CVORRES.EVANEUR" Mandatory="No" OrderNumber="16"><def:WhereClauseRef WhereClauseOID="WC.CV.CVTESTCD.EVANEUR"/></ItemRef><ItemRef ItemOID="IT.CV.CVORRES.EVCARDMG" Mandatory="No" OrderNumber="17"><def:WhereClauseRef WhereClauseOID="WC.CV.CVTESTCD.EVCARDMG"/></ItemRef><ItemRef ItemOID="IT.CV.CVORRES.EVCHRNEV" Mandatory="No" OrderNumber="18"><def:WhereClauseRef WhereClauseOID="WC.CV.CVTESTCD.EVCHRNEV"/></ItemRef><ItemRef ItemOID="IT.CV.CVORRES.EVDIADYS" Mandatory="No" OrderNumber="19">
               <def:WhereClauseRef WhereClauseOID="WC.CV.CVTESTCD.EVDIADYS"/>
            </ItemRef><ItemRef ItemOID="IT.CV.CVORRES.EVHEMCNV" Mandatory="No" OrderNumber="20"><def:WhereClauseRef WhereClauseOID="WC.CV.CVTESTCD.EVHEMCNV"/></ItemRef><ItemRef ItemOID="IT.CV.CVORRES.EVHEMO" Mandatory="No" OrderNumber="21"><def:WhereClauseRef WhereClauseOID="WC.CV.CVTESTCD.EVHEMO"/></ItemRef><ItemRef ItemOID="IT.CV.CVORRES.EVINFARC" Mandatory="No" OrderNumber="22"><def:WhereClauseRef WhereClauseOID="WC.CV.CVTESTCD.EVINFARC"/></ItemRef><ItemRef ItemOID="IT.CV.CVORRES.EVISCH" Mandatory="No" OrderNumber="23"><def:WhereClauseRef WhereClauseOID="WC.CV.CVTESTCD.EVISCH"/></ItemRef><ItemRef ItemOID="IT.CV.CVORRES.EVOBSDIS" Mandatory="No" OrderNumber="24"><def:WhereClauseRef WhereClauseOID="WC.CV.CVTESTCD.EVOBSDIS"/></ItemRef><ItemRef ItemOID="IT.CV.CVORRES.EVPULEMB" Mandatory="No" OrderNumber="25"><def:WhereClauseRef WhereClauseOID="WC.CV.CVTESTCD.EVPULEMB"/></ItemRef><ItemRef ItemOID="IT.CV.CVORRES.EVPULMED" Mandatory="No" OrderNumber="26"><def:WhereClauseRef WhereClauseOID="WC.CV.CVTESTCD.EVPULMED"/></ItemRef><ItemRef ItemOID="IT.CV.CVORRES.EVRESDIS" Mandatory="No" OrderNumber="27"><def:WhereClauseRef WhereClauseOID="WC.CV.CVTESTCD.EVRESDIS"/></ItemRef><ItemRef ItemOID="IT.CV.CVORRES.EVSIGCAD" Mandatory="No" OrderNumber="28"><def:WhereClauseRef WhereClauseOID="WC.CV.CVTESTCD.EVSIGCAD"/></ItemRef><ItemRef ItemOID="IT.CV.CVORRES.EVSTENT" Mandatory="No" OrderNumber="29"><def:WhereClauseRef WhereClauseOID="WC.CV.CVTESTCD.EVSTENT"/></ItemRef><ItemRef ItemOID="IT.CV.CVORRES.EVSTENTT" Mandatory="No" OrderNumber="30"><def:WhereClauseRef WhereClauseOID="WC.CV.CVTESTCD.EVSTENTT"/></ItemRef><ItemRef ItemOID="IT.CV.CVORRES.EVTUMOR" Mandatory="No" OrderNumber="31"><def:WhereClauseRef WhereClauseOID="WC.CV.CVTESTCD.EVTUMOR"/></ItemRef><ItemRef ItemOID="IT.CV.CVORRES.EVVALDIS" Mandatory="No" OrderNumber="32">
               <def:WhereClauseRef WhereClauseOID="WC.CV.CVTESTCD.EVVALDIS"/>
            </ItemRef><ItemRef ItemOID="IT.CV.CVORRES.INTP" Mandatory="No" OrderNumber="33"><def:WhereClauseRef WhereClauseOID="WC.CV.CVTESTCD.INTP"/></ItemRef><ItemRef ItemOID="IT.CV.CVORRES.LHRCATH" Mandatory="No" OrderNumber="34"><def:WhereClauseRef WhereClauseOID="WC.CV.CVTESTCD.LHRCATH"/></ItemRef><ItemRef ItemOID="IT.CV.CVORRES.LVEDBP" Mandatory="No" OrderNumber="35"><def:WhereClauseRef WhereClauseOID="WC.CV.CVTESTCD.LVEDBP"/></ItemRef><ItemRef ItemOID="IT.CV.CVORRES.LVEDBPI" Mandatory="No" OrderNumber="36"><def:WhereClauseRef WhereClauseOID="WC.CV.CVTESTCD.LVEDBPI"/></ItemRef><ItemRef ItemOID="IT.CV.CVORRES.LVEF" Mandatory="No" OrderNumber="37"><def:WhereClauseRef WhereClauseOID="WC.CV.CVTESTCD.LVEF"/></ItemRef><ItemRef ItemOID="IT.CV.CVORRES.MEANINC" Mandatory="No" OrderNumber="38"><def:WhereClauseRef WhereClauseOID="WC.CV.CVTESTCD.MEANINC"/></ItemRef><ItemRef ItemOID="IT.CV.CVORRES.MRI" Mandatory="No" OrderNumber="39"><def:WhereClauseRef WhereClauseOID="WC.CV.CVTESTCD.MRI"/></ItemRef><ItemRef ItemOID="IT.CV.CVORRES.MUGA" Mandatory="No" OrderNumber="40"><def:WhereClauseRef WhereClauseOID="WC.CV.CVTESTCD.MUGA"/></ItemRef><ItemRef ItemOID="IT.CV.CVORRES.NUMVESAF" Mandatory="No" OrderNumber="41"><def:WhereClauseRef WhereClauseOID="WC.CV.CVTESTCD.NUMVESAF"/></ItemRef><ItemRef ItemOID="IT.CV.CVORRES.PARTHEMB" Mandatory="No" OrderNumber="42">
               <def:WhereClauseRef WhereClauseOID="WC.CV.CVTESTCD.PARTHEMB"/>
            </ItemRef><ItemRef ItemOID="IT.CV.CVORRES.PLEUEFF" Mandatory="No" OrderNumber="43"><def:WhereClauseRef WhereClauseOID="WC.CV.CVTESTCD.PLEUEFF"/></ItemRef><ItemRef ItemOID="IT.CV.CVORRES.PULCAPWP" Mandatory="No" OrderNumber="44"><def:WhereClauseRef WhereClauseOID="WC.CV.CVTESTCD.PULCAPWP"/></ItemRef><ItemRef ItemOID="IT.CV.CVORRES.PULEMBAC" Mandatory="No" OrderNumber="45"><def:WhereClauseRef WhereClauseOID="WC.CV.CVTESTCD.PULEMBAC"/></ItemRef><ItemRef ItemOID="IT.CV.CVORRES.PULEMBAM" Mandatory="No" OrderNumber="46"><def:WhereClauseRef WhereClauseOID="WC.CV.CVTESTCD.PULEMBAM"/></ItemRef><ItemRef ItemOID="IT.CV.CVORRES.PULEMBSC" Mandatory="No" OrderNumber="47"><def:WhereClauseRef WhereClauseOID="WC.CV.CVTESTCD.PULEMBSC"/></ItemRef><ItemRef ItemOID="IT.CV.CVORRES.PULVRINC" Mandatory="No" OrderNumber="48"><def:WhereClauseRef WhereClauseOID="WC.CV.CVTESTCD.PULVRINC"/></ItemRef><ItemRef ItemOID="IT.CV.CVORRES.RESMRA" Mandatory="No" OrderNumber="49"><def:WhereClauseRef WhereClauseOID="WC.CV.CVTESTCD.RESMRA"/></ItemRef><ItemRef ItemOID="IT.CV.CVORRES.RESMRI" Mandatory="No" OrderNumber="50"><def:WhereClauseRef WhereClauseOID="WC.CV.CVTESTCD.RESMRI"/></ItemRef><ItemRef ItemOID="IT.CV.CVORRES.RHCATHPH" Mandatory="No" OrderNumber="51"><def:WhereClauseRef WhereClauseOID="WC.CV.CVTESTCD.RHCATHPH"/></ItemRef><ItemRef ItemOID="IT.CV.CVORRES.SYSINCNP" Mandatory="No" OrderNumber="52"><def:WhereClauseRef WhereClauseOID="WC.CV.CVTESTCD.SYSINCNP"/></ItemRef><ItemRef ItemOID="IT.CV.CVORRES.SYSVENTR" Mandatory="No" OrderNumber="53"><def:WhereClauseRef WhereClauseOID="WC.CV.CVTESTCD.SYSVENTR"/></ItemRef><ItemRef ItemOID="IT.CV.CVORRES.TRMBSTNT" Mandatory="No" OrderNumber="54">
               <def:WhereClauseRef WhereClauseOID="WC.CV.CVTESTCD.TRMBSTNT"/>
            </ItemRef><ItemRef ItemOID="IT.CV.CVORRES.VENPULHY" Mandatory="No" OrderNumber="55"><def:WhereClauseRef WhereClauseOID="WC.CV.CVTESTCD.VENPULHY"/></ItemRef><ItemRef ItemOID="IT.CV.CVORRES.VLSTNIND" Mandatory="No" OrderNumber="56">
               <def:WhereClauseRef WhereClauseOID="WC.CV.CVTESTCD.VLSTNIND"/>
            </ItemRef></def:ValueListDef><def:ValueListDef OID="VL.DA.DAORRES"><ItemRef ItemOID="IT.DA.DAORRES.DISPAMT" Mandatory="No" OrderNumber="1">
               <def:WhereClauseRef WhereClauseOID="WC.DA.DATESTCD.DISPAMT"/>
            </ItemRef><ItemRef ItemOID="IT.DA.DAORRES.RETAMT" Mandatory="No" OrderNumber="2">
               <def:WhereClauseRef WhereClauseOID="WC.DA.DATESTCD.RETAMT"/>
            </ItemRef><ItemRef ItemOID="IT.DA.DAORRES.TRTRET" Mandatory="No" OrderNumber="3">
               <def:WhereClauseRef WhereClauseOID="WC.DA.DATESTCD.TRTRET"/>
            </ItemRef></def:ValueListDef><def:ValueListDef OID="VL.DD.DDORRES"><ItemRef ItemOID="IT.DD.DDORRES.AUTOPIND" Mandatory="No" OrderNumber="1">
               <def:WhereClauseRef WhereClauseOID="WC.DD.DDTESTCD.AUTOPIND"/>
            </ItemRef><ItemRef ItemOID="IT.DD.DDORRES.CANDUSO" Mandatory="No" OrderNumber="2"><def:WhereClauseRef WhereClauseOID="WC.DD.DDTESTCD.CANDUSO"/></ItemRef><ItemRef ItemOID="IT.DD.DDORRES.CERTDTH" Mandatory="No" OrderNumber="3">
               <def:WhereClauseRef WhereClauseOID="WC.DD.DDTESTCD.CERTDTH"/>
            </ItemRef><ItemRef ItemOID="IT.DD.DDORRES.DNRORDER" Mandatory="No" OrderNumber="4">
               <def:WhereClauseRef WhereClauseOID="WC.DD.DDTESTCD.DNRORDER"/>
            </ItemRef><ItemRef ItemOID="IT.DD.DDORRES.DTHCHISD" Mandatory="No" OrderNumber="5"><def:WhereClauseRef WhereClauseOID="WC.DD.DDTESTCD.DTHCHISD"/></ItemRef><ItemRef ItemOID="IT.DD.DDORRES.DTHCIRC" Mandatory="No" OrderNumber="6"><def:WhereClauseRef WhereClauseOID="WC.DD.DDTESTCD.DTHCIRC"/></ItemRef><ItemRef ItemOID="IT.DD.DDORRES.DTHCLHIS" Mandatory="No" OrderNumber="7">
               <def:WhereClauseRef WhereClauseOID="WC.DD.DDTESTCD.DTHCLHIS"/>
            </ItemRef><ItemRef ItemOID="IT.DD.DDORRES.DTHCNDN" Mandatory="No" OrderNumber="8">
               <def:WhereClauseRef WhereClauseOID="WC.DD.DDTESTCD.DTHCNDN"/>
            </ItemRef><ItemRef ItemOID="IT.DD.DDORRES.DTHCVPS" Mandatory="No" OrderNumber="9">
               <def:WhereClauseRef WhereClauseOID="WC.DD.DDTESTCD.DTHCVPS"/>
            </ItemRef><ItemRef ItemOID="IT.DD.DDORRES.DTHICAUS" Mandatory="No" OrderNumber="10">
               <def:WhereClauseRef WhereClauseOID="WC.DD.DDTESTCD.DTHICAUS"/>
            </ItemRef><ItemRef ItemOID="IT.DD.DDORRES.DTHMSUIC" Mandatory="No" OrderNumber="11"><def:WhereClauseRef WhereClauseOID="WC.DD.DDTESTCD.DTHMSUIC"/></ItemRef><ItemRef ItemOID="IT.DD.DDORRES.DTHNCVPS" Mandatory="No" OrderNumber="12">
               <def:WhereClauseRef WhereClauseOID="WC.DD.DDTESTCD.DTHNCVPS"/>
            </ItemRef><ItemRef ItemOID="IT.DD.DDORRES.DTHOTIND" Mandatory="No" OrderNumber="13"><def:WhereClauseRef WhereClauseOID="WC.DD.DDTESTCD.DTHOTIND"/></ItemRef><ItemRef ItemOID="IT.DD.DDORRES.DTHOTINF" Mandatory="No" OrderNumber="14">
               <def:WhereClauseRef WhereClauseOID="WC.DD.DDTESTCD.DTHOTINF"/>
            </ItemRef><ItemRef ItemOID="IT.DD.DDORRES.DTHSAE" Mandatory="No" OrderNumber="15"><def:WhereClauseRef WhereClauseOID="WC.DD.DDTESTCD.DTHSAE"/></ItemRef><ItemRef ItemOID="IT.DD.DDORRES.DTHSUDD" Mandatory="No" OrderNumber="16">
               <def:WhereClauseRef WhereClauseOID="WC.DD.DDTESTCD.DTHSUDD"/>
            </ItemRef><ItemRef ItemOID="IT.DD.DDORRES.DTHSYMP" Mandatory="No" OrderNumber="17"><def:WhereClauseRef WhereClauseOID="WC.DD.DDTESTCD.DTHSYMP"/></ItemRef><ItemRef ItemOID="IT.DD.DDORRES.DTHUCAUS" Mandatory="No" OrderNumber="18">
               <def:WhereClauseRef WhereClauseOID="WC.DD.DDTESTCD.DTHUCAUS"/>
            </ItemRef><ItemRef ItemOID="IT.DD.DDORRES.DTHWITN" Mandatory="No" OrderNumber="19">
               <def:WhereClauseRef WhereClauseOID="WC.DD.DDTESTCD.DTHWITN"/>
            </ItemRef><ItemRef ItemOID="IT.DD.DDORRES.HAEMORG" Mandatory="No" OrderNumber="20"><def:WhereClauseRef WhereClauseOID="WC.DD.DDTESTCD.HAEMORG"/></ItemRef><ItemRef ItemOID="IT.DD.DDORRES.LOCDTH" Mandatory="No" OrderNumber="21">
               <def:WhereClauseRef WhereClauseOID="WC.DD.DDTESTCD.LOCDTH"/>
            </ItemRef><ItemRef ItemOID="IT.DD.DDORRES.LSEEADTC" Mandatory="No" OrderNumber="22">
               <def:WhereClauseRef WhereClauseOID="WC.DD.DDTESTCD.LSEEADTC"/>
            </ItemRef><ItemRef ItemOID="IT.DD.DDORRES.MEDDTH" Mandatory="No" OrderNumber="23">
               <def:WhereClauseRef WhereClauseOID="WC.DD.DDTESTCD.MEDDTH"/>
            </ItemRef><ItemRef ItemOID="IT.DD.DDORRES.MEDDTHD" Mandatory="No" OrderNumber="24"><def:WhereClauseRef WhereClauseOID="WC.DD.DDTESTCD.MEDDTHD"/></ItemRef><ItemRef ItemOID="IT.DD.DDORRES.NEWSYMP" Mandatory="No" OrderNumber="25">
               <def:WhereClauseRef WhereClauseOID="WC.DD.DDTESTCD.NEWSYMP"/>
            </ItemRef><ItemRef ItemOID="IT.DD.DDORRES.NEWSYMPD" Mandatory="No" OrderNumber="26"><def:WhereClauseRef WhereClauseOID="WC.DD.DDTESTCD.NEWSYMPD"/></ItemRef><ItemRef ItemOID="IT.DD.DDORRES.PRCDTH" Mandatory="No" OrderNumber="27">
               <def:WhereClauseRef WhereClauseOID="WC.DD.DDTESTCD.PRCDTH"/>
            </ItemRef><ItemRef ItemOID="IT.DD.DDORRES.RESUSAT" Mandatory="No" OrderNumber="28">
               <def:WhereClauseRef WhereClauseOID="WC.DD.DDTESTCD.RESUSAT"/>
            </ItemRef><ItemRef ItemOID="IT.DD.DDORRES.SECCAUSE" Mandatory="No" OrderNumber="29">
               <def:WhereClauseRef WhereClauseOID="WC.DD.DDTESTCD.SECCAUSE"/>
            </ItemRef><ItemRef ItemOID="IT.DD.DDORRES.SECDTH" Mandatory="No" OrderNumber="30"><def:WhereClauseRef WhereClauseOID="WC.DD.DDTESTCD.SECDTH"/></ItemRef><ItemRef ItemOID="IT.DD.DDORRES.SRSEPSIS" Mandatory="No" OrderNumber="31"><def:WhereClauseRef WhereClauseOID="WC.DD.DDTESTCD.SRSEPSIS"/></ItemRef><ItemRef ItemOID="IT.DD.DDORRES.SUBJTERM" Mandatory="No" OrderNumber="32">
               <def:WhereClauseRef WhereClauseOID="WC.DD.DDTESTCD.SUBJTERM"/>
            </ItemRef><ItemRef ItemOID="IT.DD.DDORRES.SUIRF" Mandatory="No" OrderNumber="33"><def:WhereClauseRef WhereClauseOID="WC.DD.DDTESTCD.SUIRF"/></ItemRef><ItemRef ItemOID="IT.DD.DDORRES.SUIRFD" Mandatory="No" OrderNumber="34"><def:WhereClauseRef WhereClauseOID="WC.DD.DDTESTCD.SUIRFD"/></ItemRef><ItemRef ItemOID="IT.DD.DDORRES.TRAUMA" Mandatory="No" OrderNumber="35"><def:WhereClauseRef WhereClauseOID="WC.DD.DDTESTCD.TRAUMA"/></ItemRef></def:ValueListDef><def:ValueListDef OID="VL.DO.DOORRES"><ItemRef ItemOID="IT.DO.DOORRES.COMPOS" Mandatory="No" OrderNumber="36">
               <def:WhereClauseRef WhereClauseOID="WC.DO.DOTESTCD.COMPOS"/>
            </ItemRef></def:ValueListDef><def:ValueListDef OID="VL.EG.EGORRES"><ItemRef ItemOID="IT.EG.EGORRES.ABNNOS" Mandatory="No" OrderNumber="1">
               <def:WhereClauseRef WhereClauseOID="WC.EG.EGTESTCD.ABNNOS"/>
            </ItemRef><ItemRef ItemOID="IT.EG.EGORRES.AVCOND" Mandatory="No" OrderNumber="2">
               <def:WhereClauseRef WhereClauseOID="WC.EG.EGTESTCD.AVCOND"/>
            </ItemRef><ItemRef ItemOID="IT.EG.EGORRES.AXISVOLT" Mandatory="No" OrderNumber="3">
               <def:WhereClauseRef WhereClauseOID="WC.EG.EGTESTCD.AXISVOLT"/>
            </ItemRef><ItemRef ItemOID="IT.EG.EGORRES.CHYPTENL" Mandatory="No" OrderNumber="4">
               <def:WhereClauseRef WhereClauseOID="WC.EG.EGTESTCD.CHYPTENL"/>
            </ItemRef><ItemRef ItemOID="IT.EG.EGORRES.CONDNOS" Mandatory="No" OrderNumber="5"><def:WhereClauseRef WhereClauseOID="WC.EG.EGTESTCD.CONDNOS"/></ItemRef><ItemRef ItemOID="IT.EG.EGORRES.EGHRMN" Mandatory="No" OrderNumber="6">
               <def:WhereClauseRef WhereClauseOID="WC.EG.EGTESTCD.EGHRMN"/>
            </ItemRef><ItemRef ItemOID="IT.EG.EGORRES.INTP" Mandatory="No" OrderNumber="7">
               <def:WhereClauseRef WhereClauseOID="WC.EG.EGTESTCD.INTP"/>
            </ItemRef><ItemRef ItemOID="IT.EG.EGORRES.IVTIACD" Mandatory="No" OrderNumber="8">
               <def:WhereClauseRef WhereClauseOID="WC.EG.EGTESTCD.IVTIACD"/>
            </ItemRef><ItemRef ItemOID="IT.EG.EGORRES.MI" Mandatory="No" OrderNumber="9"><def:WhereClauseRef WhereClauseOID="WC.EG.EGTESTCD.MI"/></ItemRef><ItemRef ItemOID="IT.EG.EGORRES.MORPHNOS" Mandatory="No" OrderNumber="10">
               <def:WhereClauseRef WhereClauseOID="WC.EG.EGTESTCD.MORPHNOS"/>
            </ItemRef><ItemRef ItemOID="IT.EG.EGORRES.PACEMAKR" Mandatory="No" OrderNumber="11"><def:WhereClauseRef WhereClauseOID="WC.EG.EGTESTCD.PACEMAKR"/></ItemRef><ItemRef ItemOID="IT.EG.EGORRES.PRAG" Mandatory="No" OrderNumber="12">
               <def:WhereClauseRef WhereClauseOID="WC.EG.EGTESTCD.PRAG"/>
            </ItemRef><ItemRef ItemOID="IT.EG.EGORRES.QRSAG" Mandatory="No" OrderNumber="13">
               <def:WhereClauseRef WhereClauseOID="WC.EG.EGTESTCD.QRSAG"/>
            </ItemRef><ItemRef ItemOID="IT.EG.EGORRES.QTAG" Mandatory="No" OrderNumber="14">
               <def:WhereClauseRef WhereClauseOID="WC.EG.EGTESTCD.QTAG"/>
            </ItemRef><ItemRef ItemOID="IT.EG.EGORRES.QTCBAG" Mandatory="No" OrderNumber="15">
               <def:WhereClauseRef WhereClauseOID="WC.EG.EGTESTCD.QTCBAG"/>
            </ItemRef><ItemRef ItemOID="IT.EG.EGORRES.QTCFAG" Mandatory="No" OrderNumber="16">
               <def:WhereClauseRef WhereClauseOID="WC.EG.EGTESTCD.QTCFAG"/>
            </ItemRef><ItemRef ItemOID="IT.EG.EGORRES.QTCUNS" Mandatory="No" OrderNumber="17">
               <def:WhereClauseRef WhereClauseOID="WC.EG.EGTESTCD.QTCUNS"/>
            </ItemRef><ItemRef ItemOID="IT.EG.EGORRES.RHYNOS" Mandatory="No" OrderNumber="18">
               <def:WhereClauseRef WhereClauseOID="WC.EG.EGTESTCD.RHYNOS"/>
            </ItemRef><ItemRef ItemOID="IT.EG.EGORRES.RRAG" Mandatory="No" OrderNumber="19">
               <def:WhereClauseRef WhereClauseOID="WC.EG.EGTESTCD.RRAG"/>
            </ItemRef><ItemRef ItemOID="IT.EG.EGORRES.SNRARRY" Mandatory="No" OrderNumber="20">
               <def:WhereClauseRef WhereClauseOID="WC.EG.EGTESTCD.SNRARRY"/>
            </ItemRef><ItemRef ItemOID="IT.EG.EGORRES.SPRARRRY" Mandatory="No" OrderNumber="21"><def:WhereClauseRef WhereClauseOID="WC.EG.EGTESTCD.SPRARRY"/></ItemRef><ItemRef ItemOID="IT.EG.EGORRES.SPRTARRY" Mandatory="No" OrderNumber="22"><def:WhereClauseRef WhereClauseOID="WC.EG.EGTESTCD.SPRTARRY"/></ItemRef><ItemRef ItemOID="IT.EG.EGORRES.STSTWUW" Mandatory="No" OrderNumber="23">
               <def:WhereClauseRef WhereClauseOID="WC.EG.EGTESTCD.STSTWUW"/>
            </ItemRef><ItemRef ItemOID="IT.EG.EGORRES.VTARRY" Mandatory="No" OrderNumber="24">
               <def:WhereClauseRef WhereClauseOID="WC.EG.EGTESTCD.VTARRY"/>
            </ItemRef><ItemRef ItemOID="IT.EG.EGORRES.VTTARRY" Mandatory="No" OrderNumber="25"><def:WhereClauseRef WhereClauseOID="WC.EG.EGTESTCD.VTTARRY"/></ItemRef></def:ValueListDef><def:ValueListDef OID="VL.FAAE.FAORRES"><ItemRef ItemOID="IT.FAAE.FAORRES.AINJSITS" Mandatory="No" OrderNumber="1"><def:WhereClauseRef WhereClauseOID="WC.FAAE.FATESTCD.AINJSITS"/></ItemRef><ItemRef ItemOID="IT.FAAE.FAORRES.CURAL" Mandatory="No" OrderNumber="2"><def:WhereClauseRef WhereClauseOID="WC.FAAE.FATESTCD.CURAL"/></ItemRef><ItemRef ItemOID="IT.FAAE.FAORRES.CURDR" Mandatory="No" OrderNumber="3"><def:WhereClauseRef WhereClauseOID="WC.FAAE.FATESTCD.CURDR"/></ItemRef><ItemRef ItemOID="IT.FAAE.FAORRES.FDRGALGH" Mandatory="No" OrderNumber="4"><def:WhereClauseRef WhereClauseOID="WC.FAAE.FATESTCD.FDRGALGH"/></ItemRef><ItemRef ItemOID="IT.FAAE.FAORRES.FPSD" Mandatory="No" OrderNumber="5"><def:WhereClauseRef WhereClauseOID="WC.FAAE.FATESTCD.FPSD"/></ItemRef><ItemRef ItemOID="IT.FAAE.FAORRES.FSUI" Mandatory="No" OrderNumber="6"><def:WhereClauseRef WhereClauseOID="WC.FAAE.FATESTCD.FSUI"/></ItemRef><ItemRef ItemOID="IT.FAAE.FAORRES.GRINT" Mandatory="No" OrderNumber="7"><def:WhereClauseRef WhereClauseOID="WC.FAAE.FATESTCD.GRINT"/></ItemRef><ItemRef ItemOID="IT.FAAE.FAORRES.NCUTFIND" Mandatory="No" OrderNumber="8"><def:WhereClauseRef WhereClauseOID="WC.FAAE.FATESTCD.NCUTFIND"/></ItemRef><ItemRef ItemOID="IT.FAAE.FAORRES.PCAECMED" Mandatory="No" OrderNumber="9"><def:WhereClauseRef WhereClauseOID="WC.FAAE.FATESTCD.PCAECMED"/></ItemRef><ItemRef ItemOID="IT.FAAE.FAORRES.PCAEDUST" Mandatory="No" OrderNumber="10"><def:WhereClauseRef WhereClauseOID="WC.FAAE.FATESTCD.PCAEDUST"/></ItemRef><ItemRef ItemOID="IT.FAAE.FAORRES.PCAEIP" Mandatory="No" OrderNumber="11"><def:WhereClauseRef WhereClauseOID="WC.FAAE.FATESTCD.PCAEIP"/></ItemRef><ItemRef ItemOID="IT.FAAE.FAORRES.PCAEIPCH" Mandatory="No" OrderNumber="12"><def:WhereClauseRef WhereClauseOID="WC.FAAE.FATESTCD.PCAEIPCH"/></ItemRef><ItemRef ItemOID="IT.FAAE.FAORRES.PCAELKEF" Mandatory="No" OrderNumber="13"><def:WhereClauseRef WhereClauseOID="WC.FAAE.FATESTCD.PCAELKEF"/></ItemRef><ItemRef ItemOID="IT.FAAE.FAORRES.PCAEMEDC" Mandatory="No" OrderNumber="14"><def:WhereClauseRef WhereClauseOID="WC.FAAE.FATESTCD.PCAEMEDC"/></ItemRef><ItemRef ItemOID="IT.FAAE.FAORRES.PCAEOTH" Mandatory="No" OrderNumber="15"><def:WhereClauseRef WhereClauseOID="WC.FAAE.FATESTCD.PCAEOTH"/></ItemRef><ItemRef ItemOID="IT.FAAE.FAORRES.PCAEOTTX" Mandatory="No" OrderNumber="16"><def:WhereClauseRef WhereClauseOID="WC.FAAE.FATESTCD.PCAEOTTX"/></ItemRef><ItemRef ItemOID="IT.FAAE.FAORRES.PCAEWDIP" Mandatory="No" OrderNumber="17"><def:WhereClauseRef WhereClauseOID="WC.FAAE.FATESTCD.PCAEWDIP"/></ItemRef><ItemRef ItemOID="IT.FAAE.FAORRES.PRSTABAC" Mandatory="No" OrderNumber="18"><def:WhereClauseRef WhereClauseOID="WC.FAAE.FATESTCD.PRSTABAC"/></ItemRef><ItemRef ItemOID="IT.FAAE.FAORRES.PSAEPSC" Mandatory="No" OrderNumber="19"><def:WhereClauseRef WhereClauseOID="WC.FAAE.FATESTCD.PSAEPSC"/></ItemRef><ItemRef ItemOID="IT.FAAE.FAORRES.PSAEPSST" Mandatory="No" OrderNumber="20"><def:WhereClauseRef WhereClauseOID="WC.FAAE.FATESTCD.PSAEPSST"/></ItemRef><ItemRef ItemOID="IT.FAAE.FAORRES.PSRAETX" Mandatory="No" OrderNumber="21"><def:WhereClauseRef WhereClauseOID="WC.FAAE.FATESTCD.PSRAETX"/></ItemRef><ItemRef ItemOID="IT.FAAE.FAORRES.PSYCHP" Mandatory="No" OrderNumber="22"><def:WhereClauseRef WhereClauseOID="WC.FAAE.FATESTCD.PSYCHP"/></ItemRef><ItemRef ItemOID="IT.FAAE.FAORRES.RASHSTAT" Mandatory="No" OrderNumber="23"><def:WhereClauseRef WhereClauseOID="WC.FAAE.FATESTCD.RASHSTAT"/></ItemRef><ItemRef ItemOID="IT.FAAE.FAORRES.SDRGALGH" Mandatory="No" OrderNumber="24"><def:WhereClauseRef WhereClauseOID="WC.FAAE.FATESTCD.SDRGALGH"/></ItemRef><ItemRef ItemOID="IT.FAAE.FAORRES.SKRSHHSR" Mandatory="No" OrderNumber="25"><def:WhereClauseRef WhereClauseOID="WC.FAAE.FATESTCD.SKRSHHSR"/></ItemRef><ItemRef ItemOID="IT.FAAE.FAORRES.SUIID" Mandatory="No" OrderNumber="26"><def:WhereClauseRef WhereClauseOID="WC.FAAE.FATESTCD.SUIID"/></ItemRef><ItemRef ItemOID="IT.FAAE.FAORRES.TXISRSYM" Mandatory="No" OrderNumber="27"><def:WhereClauseRef WhereClauseOID="WC.FAAE.FATESTCD.TXISRSYM"/></ItemRef></def:ValueListDef><def:ValueListDef OID="VL.FACE.FAORRES"><ItemRef ItemOID="IT.FACE.FAORRES.ABNNEUED" Mandatory="No" OrderNumber="1"><def:WhereClauseRef WhereClauseOID="WC.FACE.FATESTCD.ABNNEUED"/></ItemRef><ItemRef ItemOID="IT.FACE.FAORRES.ABNNEUEX" Mandatory="No" OrderNumber="2"><def:WhereClauseRef WhereClauseOID="WC.FACE.FATESTCD.ABNNEUEX"/></ItemRef><ItemRef ItemOID="IT.FACE.FAORRES.ABNPHEX" Mandatory="No" OrderNumber="3"><def:WhereClauseRef WhereClauseOID="WC.FACE.FATESTCD.ABNPHEX"/></ItemRef><ItemRef ItemOID="IT.FACE.FAORRES.ACCONF" Mandatory="No" OrderNumber="4"><def:WhereClauseRef WhereClauseOID="WC.FACE.FATESTCD.ACCONF"/></ItemRef><ItemRef ItemOID="IT.FACE.FAORRES.ACCONFD" Mandatory="No" OrderNumber="5"><def:WhereClauseRef WhereClauseOID="WC.FACE.FATESTCD.ACCONFD"/></ItemRef><ItemRef ItemOID="IT.FACE.FAORRES.ACUTSYM" Mandatory="No" OrderNumber="6"><def:WhereClauseRef WhereClauseOID="WC.FACE.FATESTCD.ACUTSYM"/></ItemRef><ItemRef ItemOID="IT.FACE.FAORRES.ADLACT" Mandatory="No" OrderNumber="7"><def:WhereClauseRef WhereClauseOID="WC.FACE.FATESTCD.ADLACT"/></ItemRef><ItemRef ItemOID="IT.FACE.FAORRES.AGE55" Mandatory="No" OrderNumber="8"><def:WhereClauseRef WhereClauseOID="WC.FACE.FATESTCD.AGE55"/></ItemRef><ItemRef ItemOID="IT.FACE.FAORRES.ANGEXERT" Mandatory="No" OrderNumber="9"><def:WhereClauseRef WhereClauseOID="WC.FACE.FATESTCD.ANGEXERT"/></ItemRef><ItemRef ItemOID="IT.FACE.FAORRES.ANGNEW" Mandatory="No" OrderNumber="10"><def:WhereClauseRef WhereClauseOID="WC.FACE.FATESTCD.ANGNEW"/></ItemRef><ItemRef ItemOID="IT.FACE.FAORRES.ANGOCCPR" Mandatory="No" OrderNumber="11"><def:WhereClauseRef WhereClauseOID="WC.FACE.FATESTCD.ANGOCCPR"/></ItemRef><ItemRef ItemOID="IT.FACE.FAORRES.ANGREST" Mandatory="No" OrderNumber="12"><def:WhereClauseRef WhereClauseOID="WC.FACE.FATESTCD.ANGREST"/></ItemRef><ItemRef ItemOID="IT.FACE.FAORRES.ANGSMPMI" Mandatory="No" OrderNumber="13"><def:WhereClauseRef WhereClauseOID="WC.FACE.FATESTCD.ANGSMPMI"/></ItemRef><ItemRef ItemOID="IT.FACE.FAORRES.AOVALABD" Mandatory="No" OrderNumber="14"><def:WhereClauseRef WhereClauseOID="WC.FACE.FATESTCD.AOVALABD"/></ItemRef><ItemRef ItemOID="IT.FACE.FAORRES.AOVALABN" Mandatory="No" OrderNumber="15"><def:WhereClauseRef WhereClauseOID="WC.FACE.FATESTCD.AOVALABN"/></ItemRef><ItemRef ItemOID="IT.FACE.FAORRES.ARRDIAG" Mandatory="No" OrderNumber="16"><def:WhereClauseRef WhereClauseOID="WC.FACE.FATESTCD.ARRDIAG"/></ItemRef><ItemRef ItemOID="IT.FACE.FAORRES.ARRREL" Mandatory="No" OrderNumber="17"><def:WhereClauseRef WhereClauseOID="WC.FACE.FATESTCD.ARRREL"/></ItemRef><ItemRef ItemOID="IT.FACE.FAORRES.ATAXIA" Mandatory="No" OrderNumber="18"><def:WhereClauseRef WhereClauseOID="WC.FACE.FATESTCD.ATAXIA"/></ItemRef><ItemRef ItemOID="IT.FACE.FAORRES.ATAXIAD" Mandatory="No" OrderNumber="19"><def:WhereClauseRef WhereClauseOID="WC.FACE.FATESTCD.ATAXIAD"/></ItemRef><ItemRef ItemOID="IT.FACE.FAORRES.ATYPSYMP" Mandatory="No" OrderNumber="20"><def:WhereClauseRef WhereClauseOID="WC.FACE.FATESTCD.ATYPSYMP"/></ItemRef><ItemRef ItemOID="IT.FACE.FAORRES.BIOPTKN" Mandatory="No" OrderNumber="21"><def:WhereClauseRef WhereClauseOID="WC.FACE.FATESTCD.BIOPTKN"/></ItemRef><ItemRef ItemOID="IT.FACE.FAORRES.CALFSW" Mandatory="No" OrderNumber="22"><def:WhereClauseRef WhereClauseOID="WC.FACE.FATESTCD.CALFSW"/></ItemRef><ItemRef ItemOID="IT.FACE.FAORRES.CALFTEND" Mandatory="No" OrderNumber="23"><def:WhereClauseRef WhereClauseOID="WC.FACE.FATESTCD.CALFTEND"/></ItemRef><ItemRef ItemOID="IT.FACE.FAORRES.CHRSYMP" Mandatory="No" OrderNumber="24"><def:WhereClauseRef WhereClauseOID="WC.FACE.FATESTCD.CHRSYMP"/></ItemRef><ItemRef ItemOID="IT.FACE.FAORRES.CONFBED" Mandatory="No" OrderNumber="25"><def:WhereClauseRef WhereClauseOID="WC.FACE.FATESTCD.CONFBED"/></ItemRef><ItemRef ItemOID="IT.FACE.FAORRES.CVARR" Mandatory="No" OrderNumber="26"><def:WhereClauseRef WhereClauseOID="WC.FACE.FATESTCD.CVARR"/></ItemRef><ItemRef ItemOID="IT.FACE.FAORRES.DECRCOND" Mandatory="No" OrderNumber="27"><def:WhereClauseRef WhereClauseOID="WC.FACE.FATESTCD.DECRCOND"/></ItemRef><ItemRef ItemOID="IT.FACE.FAORRES.DECRCONS" Mandatory="No" OrderNumber="28"><def:WhereClauseRef WhereClauseOID="WC.FACE.FATESTCD.DECRCONS"/></ItemRef><ItemRef ItemOID="IT.FACE.FAORRES.DIAGSTRK" Mandatory="No" OrderNumber="29"><def:WhereClauseRef WhereClauseOID="WC.FACE.FATESTCD.DIAGSTRK"/></ItemRef><ItemRef ItemOID="IT.FACE.FAORRES.DIPLOP" Mandatory="No" OrderNumber="30"><def:WhereClauseRef WhereClauseOID="WC.FACE.FATESTCD.DIPLOP"/></ItemRef><ItemRef ItemOID="IT.FACE.FAORRES.DIPLOPD" Mandatory="No" OrderNumber="31"><def:WhereClauseRef WhereClauseOID="WC.FACE.FATESTCD.DIPLOPD"/></ItemRef><ItemRef ItemOID="IT.FACE.FAORRES.DYSPLAND" Mandatory="No" OrderNumber="32"><def:WhereClauseRef WhereClauseOID="WC.FACE.FATESTCD.DYSPLAND"/></ItemRef><ItemRef ItemOID="IT.FACE.FAORRES.DYSPLANG" Mandatory="No" OrderNumber="33"><def:WhereClauseRef WhereClauseOID="WC.FACE.FATESTCD.DYSPLANG"/></ItemRef><ItemRef ItemOID="IT.FACE.FAORRES.DYSPSWAD" Mandatory="No" OrderNumber="34"><def:WhereClauseRef WhereClauseOID="WC.FACE.FATESTCD.DYSPSWAD"/></ItemRef><ItemRef ItemOID="IT.FACE.FAORRES.DYSPSWAL" Mandatory="No" OrderNumber="35"><def:WhereClauseRef WhereClauseOID="WC.FACE.FATESTCD.DYSPSWAL"/></ItemRef><ItemRef ItemOID="IT.FACE.FAORRES.ECSPACWJ" Mandatory="No" OrderNumber="36"><def:WhereClauseRef WhereClauseOID="WC.FACE.FATESTCD.ECSPACWJ"/></ItemRef><ItemRef ItemOID="IT.FACE.FAORRES.ECSSRDTC" Mandatory="No" OrderNumber="37"><def:WhereClauseRef WhereClauseOID="WC.FACE.FATESTCD.ECSSRDTC"/></ItemRef><ItemRef ItemOID="IT.FACE.FAORRES.ECSSRSPA" Mandatory="No" OrderNumber="38"><def:WhereClauseRef WhereClauseOID="WC.FACE.FATESTCD.ECSSRSPA"/></ItemRef><ItemRef ItemOID="IT.FACE.FAORRES.ECSSRSPF" Mandatory="No" OrderNumber="39"><def:WhereClauseRef WhereClauseOID="WC.FACE.FATESTCD.ECSSRSPF"/></ItemRef><ItemRef ItemOID="IT.FACE.FAORRES.EGPRAVL" Mandatory="No" OrderNumber="40"><def:WhereClauseRef WhereClauseOID="WC.FACE.FATETSCD.EGPRAVL"/></ItemRef><ItemRef ItemOID="IT.FACE.FAORRES.EPEVAL" Mandatory="No" OrderNumber="42"><def:WhereClauseRef WhereClauseOID="WC.FACE.FATESTCD.EPEVAL"/></ItemRef><ItemRef ItemOID="IT.FACE.FAORRES.EPREP" Mandatory="No" OrderNumber="41"><def:WhereClauseRef WhereClauseOID="WC.FACE.FATESTCD.EPREP"/></ItemRef><ItemRef ItemOID="IT.FACE.FAORRES.ESCMED" Mandatory="No" OrderNumber="43"><def:WhereClauseRef WhereClauseOID="WC.FACE.FATESTCD.ESCMED"/></ItemRef><ItemRef ItemOID="IT.FACE.FAORRES.EVNTSAE" Mandatory="No" OrderNumber="44"><def:WhereClauseRef WhereClauseOID="WC.FACE.FATESTCD.EVNTSAE"/></ItemRef><ItemRef ItemOID="IT.FACE.FAORRES.EVTRAUMA" Mandatory="No" OrderNumber="45"><def:WhereClauseRef WhereClauseOID="WC.FACE.FATESTCD.EVTRAUMA"/></ItemRef><ItemRef ItemOID="IT.FACE.FAORRES.FNDIAG" Mandatory="No" OrderNumber="46"><def:WhereClauseRef WhereClauseOID="WC.FACE.FATESTCD.FNDIAG"/></ItemRef><ItemRef ItemOID="IT.FACE.FAORRES.FSTDTYCH" Mandatory="No" OrderNumber="47"><def:WhereClauseRef WhereClauseOID="WC.FACE.FATESTCD.FSTDTYCH"/></ItemRef><ItemRef ItemOID="IT.FACE.FAORRES.FVEINSGN" Mandatory="No" OrderNumber="48"><def:WhereClauseRef WhereClauseOID="WC.FACE.FATESTCD.FVEINSGN"/></ItemRef><ItemRef ItemOID="IT.FACE.FAORRES.HFCHGTRT" Mandatory="No" OrderNumber="49"><def:WhereClauseRef WhereClauseOID="WC.FACE.FATESTCD.HFCHGTRT"/></ItemRef><ItemRef ItemOID="IT.FACE.FAORRES.HFSIGN" Mandatory="No" OrderNumber="50"><def:WhereClauseRef WhereClauseOID="WC.FACE.FATESTCD.HFSIGN"/></ItemRef><ItemRef ItemOID="IT.FACE.FAORRES.HFSYMP" Mandatory="No" OrderNumber="51"><def:WhereClauseRef WhereClauseOID="WC.FACE.FATESTCD.HFSYMP"/></ItemRef><ItemRef ItemOID="IT.FACE.FAORRES.HMDIZVED" Mandatory="No" OrderNumber="52"><def:WhereClauseRef WhereClauseOID="WC.FACE.FATESTCD.HMDIZVED"/></ItemRef><ItemRef ItemOID="IT.FACE.FAORRES.HMDIZVER" Mandatory="No" OrderNumber="53"><def:WhereClauseRef WhereClauseOID="WC.FACE.FATESTCD.HMDIZVER"/></ItemRef><ItemRef ItemOID="IT.FACE.FAORRES.HOLTEVAL" Mandatory="No" OrderNumber="54"><def:WhereClauseRef WhereClauseOID="WC.FACE.FATESTCD.HOLTEVAL"/></ItemRef><ItemRef ItemOID="IT.FACE.FAORRES.HOLTREP" Mandatory="No" OrderNumber="55"><def:WhereClauseRef WhereClauseOID="WC.FACE.FATESTCD.HOLTREP"/></ItemRef><ItemRef ItemOID="IT.FACE.FAORRES.HYPOTENS" Mandatory="No" OrderNumber="56"><def:WhereClauseRef WhereClauseOID="WC.FACE.FATESTCD.HYPOTENS"/></ItemRef><ItemRef ItemOID="IT.FACE.FAORRES.HYVENTR" Mandatory="No" OrderNumber="57"><def:WhereClauseRef WhereClauseOID="WC.FACE.FATESTCD.HYVENTR"/></ItemRef><ItemRef ItemOID="IT.FACE.FAORRES.INCRDIU" Mandatory="No" OrderNumber="58"><def:WhereClauseRef WhereClauseOID="WC.FACE.FATESTCD.INCRDIU"/></ItemRef><ItemRef ItemOID="IT.FACE.FAORRES.INJSITPN" Mandatory="No" OrderNumber="59"><def:WhereClauseRef WhereClauseOID="WC.FACE.FATESTCD.INJSITPN"/></ItemRef><ItemRef ItemOID="IT.FACE.FAORRES.LESTREST" Mandatory="No" OrderNumber="60"><def:WhereClauseRef WhereClauseOID="WC.FACE.FATESTCD.LESTREST"/></ItemRef><ItemRef ItemOID="IT.FACE.FAORRES.LIGHTHD" Mandatory="No" OrderNumber="61"><def:WhereClauseRef WhereClauseOID="WC.FACE.FATESTCD.LIGHTHD"/></ItemRef><ItemRef ItemOID="IT.FACE.FAORRES.LIMGNORM" Mandatory="No" OrderNumber="62"><def:WhereClauseRef WhereClauseOID="WC.FACE.FATESTCD.LIMGNORM"/></ItemRef><ItemRef ItemOID="IT.FACE.FAORRES.LIMGPERF" Mandatory="No" OrderNumber="63"><def:WhereClauseRef WhereClauseOID="WC.FACE.FATESTCD.LIMGPERF"/></ItemRef><ItemRef ItemOID="IT.FACE.FAORRES.LOOPEVAL" Mandatory="No" OrderNumber="64"><def:WhereClauseRef WhereClauseOID="WC.FACE.FATESTCD.LOOPEVAL"/></ItemRef><ItemRef ItemOID="IT.FACE.FAORRES.LOOPREC" Mandatory="No" OrderNumber="65"><def:WhereClauseRef WhereClauseOID="WC.FACE.FATESTCD.LOOPREC"/></ItemRef><ItemRef ItemOID="IT.FACE.FAORRES.LVEVTSAE" Mandatory="No" OrderNumber="66"><def:WhereClauseRef WhereClauseOID="WC.FACE.FATESTCD.LVEVTSAE"/></ItemRef><ItemRef ItemOID="IT.FACE.FAORRES.MEDADM" Mandatory="No" OrderNumber="67"><def:WhereClauseRef WhereClauseOID="WC.FACE.FATESTCD.MEDADM"/></ItemRef><ItemRef ItemOID="IT.FACE.FAORRES.MEDGIVEN" Mandatory="No" OrderNumber="68"><def:WhereClauseRef WhereClauseOID="WC.FACE.FATESTCD.MEDGIVEN"/></ItemRef><ItemRef ItemOID="IT.FACE.FAORRES.MIUAMED" Mandatory="No" OrderNumber="69"><def:WhereClauseRef WhereClauseOID="WC.FACE.FATESTCD.MIUAMED"/></ItemRef><ItemRef ItemOID="IT.FACE.FAORRES.MIVALABD" Mandatory="No" OrderNumber="70"><def:WhereClauseRef WhereClauseOID="WC.FACE.FATESTCD.MIVALABD"/></ItemRef><ItemRef ItemOID="IT.FACE.FAORRES.MIVALABN" Mandatory="No" OrderNumber="71"><def:WhereClauseRef WhereClauseOID="WC.FACE.FATESTCD.MIVALABN"/></ItemRef><ItemRef ItemOID="IT.FACE.FAORRES.NEWMED" Mandatory="No" OrderNumber="72"><def:WhereClauseRef WhereClauseOID="WC.FACE.FATESTCD.NEWMED"/></ItemRef><ItemRef ItemOID="IT.FACE.FAORRES.NYSTAG" Mandatory="No" OrderNumber="73"><def:WhereClauseRef WhereClauseOID="WC.FACE.FATESTCD.NYSTAG"/></ItemRef><ItemRef ItemOID="IT.FACE.FAORRES.NYSTAGD" Mandatory="No" OrderNumber="74"><def:WhereClauseRef WhereClauseOID="WC.FACE.FATESTCD.NYSTAGD"/></ItemRef><ItemRef ItemOID="IT.FACE.FAORRES.OTDISHYD" Mandatory="No" OrderNumber="75"><def:WhereClauseRef WhereClauseOID="WC.FACE.FATETSCD.OTDISHYD"/></ItemRef><ItemRef ItemOID="IT.FACE.FAORRES.OTDISHYP" Mandatory="No" OrderNumber="76"><def:WhereClauseRef WhereClauseOID="WC.FACE.FATETSCD.OTDISHYP"/></ItemRef><ItemRef ItemOID="IT.FACE.FAORRES.OTSYMDVT" Mandatory="No" OrderNumber="77"><def:WhereClauseRef WhereClauseOID="WC.FACE.FATESTCD.OTSYMDVT"/></ItemRef><ItemRef ItemOID="IT.FACE.FAORRES.OTSYMPE" Mandatory="No" OrderNumber="78"><def:WhereClauseRef WhereClauseOID="WC.FACE.FATESTCD.OTSYMPE"/></ItemRef><ItemRef ItemOID="IT.FACE.FAORRES.PACEEVAL" Mandatory="No" OrderNumber="79"><def:WhereClauseRef WhereClauseOID="WC.FACE.FATESTCD.PACEEVALL"/></ItemRef><ItemRef ItemOID="IT.FACE.FAORRES.PACEICD" Mandatory="No" OrderNumber="80"><def:WhereClauseRef WhereClauseOID="WC.FACE.FATESTCD.PACEICD"/></ItemRef><ItemRef ItemOID="IT.FACE.FAORRES.PALP" Mandatory="No" OrderNumber="81"><def:WhereClauseRef WhereClauseOID="WC.FACE.FATESTCD.PALP"/></ItemRef><ItemRef ItemOID="IT.FACE.FAORRES.PERCINT" Mandatory="No" OrderNumber="82"><def:WhereClauseRef WhereClauseOID="WC.FACE.FATESTCD.PERCINT"/></ItemRef><ItemRef ItemOID="IT.FACE.FAORRES.PLECPAIN" Mandatory="No" OrderNumber="83"><def:WhereClauseRef WhereClauseOID="WC.FACE.FATESTCD.PLECPAIN"/></ItemRef><ItemRef ItemOID="IT.FACE.FAORRES.POSALAE" Mandatory="No" OrderNumber="84"><def:WhereClauseRef WhereClauseOID="WC.FACE.FATESTCD.POSALAE"/></ItemRef><ItemRef ItemOID="IT.FACE.FAORRES.PREGNANT" Mandatory="No" OrderNumber="85"><def:WhereClauseRef WhereClauseOID="WC.FACE.FATESTCD.PREGNANT"/></ItemRef><ItemRef ItemOID="IT.FACE.FAORRES.PULSLOSS" Mandatory="No" OrderNumber="86"><def:WhereClauseRef WhereClauseOID="WC.FACE.FATESTCD.PULSLOSS"/></ItemRef><ItemRef ItemOID="IT.FACE.FAORRES.PUVALABD" Mandatory="No" OrderNumber="87"><def:WhereClauseRef WhereClauseOID="WC.FACE.FATESTCD.PUVALABD"/></ItemRef><ItemRef ItemOID="IT.FACE.FAORRES.PUVALABN" Mandatory="No" OrderNumber="88"><def:WhereClauseRef WhereClauseOID="WC.FACE.FATESTCD.PUVALABN"/></ItemRef><ItemRef ItemOID="IT.FACE.FAORRES.RHYTEL" Mandatory="No" OrderNumber="89"><def:WhereClauseRef WhereClauseOID="WC.FACE.FATESTCD.RHYTEL"/></ItemRef><ItemRef ItemOID="IT.FACE.FAORRES.RHYTEVAL" Mandatory="No" OrderNumber="90"><def:WhereClauseRef WhereClauseOID="WC.FACE.FATESTCD.RHYTEVAL"/></ItemRef><ItemRef ItemOID="IT.FACE.FAORRES.RKPRES" Mandatory="No" OrderNumber="91"><def:WhereClauseRef WhereClauseOID="WC.FACE.FATESTCD.RKPRES"/></ItemRef><ItemRef ItemOID="IT.FACE.FAORRES.RSPOSNAE" Mandatory="No" OrderNumber="92"><def:WhereClauseRef WhereClauseOID="WC.FACE.FATESTCD.RSPOSNAE"/></ItemRef><ItemRef ItemOID="IT.FACE.FAORRES.RSPOSNCJ" Mandatory="No" OrderNumber="93"><def:WhereClauseRef WhereClauseOID="WC.FACE.FATESTCD.RSPOSNCJ"/></ItemRef><ItemRef ItemOID="IT.FACE.FAORRES.SBREATH" Mandatory="No" OrderNumber="94"><def:WhereClauseRef WhereClauseOID="WC.FACE.FATESTCD.SBREATH"/></ItemRef><ItemRef ItemOID="IT.FACE.FAORRES.SENLOSLD" Mandatory="No" OrderNumber="95"><def:WhereClauseRef WhereClauseOID="WC.FACE.FATESTCD.SENLOSLD"/></ItemRef><ItemRef ItemOID="IT.FACE.FAORRES.SENLOSRD" Mandatory="No" OrderNumber="96"><def:WhereClauseRef WhereClauseOID="WC.FACE.FATESTCD.SENLOSRD"/></ItemRef><ItemRef ItemOID="IT.FACE.FAORRES.SENLOSSL" Mandatory="No" OrderNumber="97"><def:WhereClauseRef WhereClauseOID="WC.FACE.FATESTCD.SENLOSSL"/></ItemRef><ItemRef ItemOID="IT.FACE.FAORRES.SENLOSSR" Mandatory="No" OrderNumber="98"><def:WhereClauseRef WhereClauseOID="WC.FACE.FATESTCD.SENLOSSR"/></ItemRef><ItemRef ItemOID="IT.FACE.FAORRES.SEQUEL" Mandatory="No" OrderNumber="99"><def:WhereClauseRef WhereClauseOID="WC.FACE.FATESTCD.SEQUEL"/></ItemRef><ItemRef ItemOID="IT.FACE.FAORRES.SEVBRTH" Mandatory="No" OrderNumber="100"><def:WhereClauseRef WhereClauseOID="WC.FACE.FATESTCD.SEVBRTH"/></ItemRef><ItemRef ItemOID="IT.FACE.FAORRES.SURINT" Mandatory="No" OrderNumber="101"><def:WhereClauseRef WhereClauseOID="WC.FACE.FATESTCD.SURINT"/></ItemRef><ItemRef ItemOID="IT.FACE.FAORRES.SURPPERF" Mandatory="No" OrderNumber="102"><def:WhereClauseRef WhereClauseOID="WC.FACE.FATESTCD.SURPPERF"/></ItemRef><ItemRef ItemOID="IT.FACE.FAORRES.SYMVASOC" Mandatory="No" OrderNumber="103"><def:WhereClauseRef WhereClauseOID="WC.FACE.FATESTCD.SYMVASOC"/></ItemRef><ItemRef ItemOID="IT.FACE.FAORRES.SYNC" Mandatory="No" OrderNumber="104"><def:WhereClauseRef WhereClauseOID="WC.FACE.FATESTCD.SYNC"/></ItemRef><ItemRef ItemOID="IT.FACE.FAORRES.TACHYHR" Mandatory="No" OrderNumber="105"><def:WhereClauseRef WhereClauseOID="WC.FACE.FATESTCD.TACHYHR"/></ItemRef><ItemRef ItemOID="IT.FACE.FAORRES.TRTEDCRM" Mandatory="No" OrderNumber="106"><def:WhereClauseRef WhereClauseOID="WC.FACE.FATESTCD.TRTEDCRM"/></ItemRef><ItemRef ItemOID="IT.FACE.FAORRES.TRVALABD" Mandatory="No" OrderNumber="107"><def:WhereClauseRef WhereClauseOID="WC.FACE.FATESTCD.TRVALABD"/></ItemRef><ItemRef ItemOID="IT.FACE.FAORRES.TRVALABN" Mandatory="No" OrderNumber="108"><def:WhereClauseRef WhereClauseOID="WC.FACE.FATESTCD.TRVALABN"/></ItemRef><ItemRef ItemOID="IT.FACE.FAORRES.UCVMED" Mandatory="No" OrderNumber="109"><def:WhereClauseRef WhereClauseOID="WC.FACE.FATESTCD.UCVMED"/></ItemRef><ItemRef ItemOID="IT.FACE.FAORRES.VALMED" Mandatory="No" OrderNumber="110"><def:WhereClauseRef WhereClauseOID="WC.FACE.FATESTCD.VALMED"/></ItemRef><ItemRef ItemOID="IT.FACE.FAORRES.VALPRCND" Mandatory="No" OrderNumber="111"><def:WhereClauseRef WhereClauseOID="WC.FACE.FATETSCD.VALPRCND"/></ItemRef><ItemRef ItemOID="IT.FACE.FAORRES.VALSUR" Mandatory="No" OrderNumber="112"><def:WhereClauseRef WhereClauseOID="WC.FACE.FATESTCD.VALSUR"/></ItemRef><ItemRef ItemOID="IT.FACE.FAORRES.VASSUPP" Mandatory="No" OrderNumber="113"><def:WhereClauseRef WhereClauseOID="WC.FACE.FATESTCD.VASSUPP"/></ItemRef></def:ValueListDef><def:ValueListDef OID="VL.FADE.FAORRES"><ItemRef ItemOID="IT.FADE.FAORRES.RMADM" Mandatory="No" OrderNumber="1"><def:WhereClauseRef WhereClauseOID="WC.FADE.FATESTCD.RMADM"/></ItemRef><ItemRef ItemOID="IT.FADE.FAORRES.RMADMSP" Mandatory="No" OrderNumber="2"><def:WhereClauseRef WhereClauseOID="WC.FADE.FATESTCD.RMADMSP"/></ItemRef><ItemRef ItemOID="IT.FADE.FAORRES.RNSIHCP" Mandatory="No" OrderNumber="3"><def:WhereClauseRef WhereClauseOID="WC.FADE.FATESTCD.RNSIHCP"/></ItemRef><ItemRef ItemOID="IT.FADE.FAORRES.SYMALF" Mandatory="No" OrderNumber="4"><def:WhereClauseRef WhereClauseOID="WC.FADE.FATESTCD.SYMALF"/></ItemRef></def:ValueListDef><def:ValueListDef OID="VL.FAEX.FAORRES"><ItemRef ItemOID="IT.FAEX.FAORRES.EXTRTCFM" Mandatory="No" OrderNumber="1"><def:WhereClauseRef WhereClauseOID="WC.FAEX.FATESTCD.EXTRTCFM"/></ItemRef><ItemRef ItemOID="IT.FAEX.FAORRES.EXTRTRS" Mandatory="No" OrderNumber="2"><def:WhereClauseRef WhereClauseOID="WC.FAEX.FATESTCD.EXTRTRS"/></ItemRef><ItemRef ItemOID="IT.FAEX.FAORRES.THRPREF" Mandatory="No" OrderNumber="3"><def:WhereClauseRef WhereClauseOID="WC.FAEX.FATESTCD.THRPREF"/></ItemRef></def:ValueListDef><def:ValueListDef OID="VL.FAMH.FAORRES"><ItemRef ItemOID="IT.FAMH.FAORRES.AHTERM" Mandatory="No" OrderNumber="1"><def:WhereClauseRef WhereClauseOID="WC.FAMH.FATESTCD.AHTERM"/></ItemRef><ItemRef ItemOID="IT.FAMH.FAORRES.FSZDTC" Mandatory="No" OrderNumber="2"><def:WhereClauseRef WhereClauseOID="WC.FAMH.FATESTCD.FSZDTC"/></ItemRef><ItemRef ItemOID="IT.FAMH.FAORRES.RECSZDTC" Mandatory="No" OrderNumber="3"><def:WhereClauseRef WhereClauseOID="WC.FAMH.FATESTCD.RECSZDTC"/></ItemRef></def:ValueListDef><def:ValueListDef OID="VL.IE.IEORRES"><ItemRef ItemOID="IT.IE.IEORRES.EXC01" Mandatory="No" OrderNumber="1"><def:WhereClauseRef WhereClauseOID="WC.IE.IETESTCD.EXC01"/></ItemRef><ItemRef ItemOID="IT.IE.IEORRES.EXC02" Mandatory="No" OrderNumber="2">
               <def:WhereClauseRef WhereClauseOID="WC.IE.IETESTCD.EXC02"/>
            </ItemRef><ItemRef ItemOID="IT.IE.IEORRES.EXC03" Mandatory="No" OrderNumber="3"><def:WhereClauseRef WhereClauseOID="WC.IE.IETESTCD.EXC03"/></ItemRef><ItemRef ItemOID="IT.IE.IEORRES.EXC04" Mandatory="No" OrderNumber="4">
               <def:WhereClauseRef WhereClauseOID="WC.IE.IETESTCD.EXC04"/>
            </ItemRef><ItemRef ItemOID="IT.IE.IEORRES.EXC05" Mandatory="No" OrderNumber="5">
               <def:WhereClauseRef WhereClauseOID="WC.IE.IETESTCD.EXC05"/>
            </ItemRef><ItemRef ItemOID="IT.IE.IEORRES.EXC06" Mandatory="No" OrderNumber="6">
               <def:WhereClauseRef WhereClauseOID="WC.IE.IETESTCD.EXC06"/>
            </ItemRef><ItemRef ItemOID="IT.IE.IEORRES.EXC07" Mandatory="No" OrderNumber="7">
               <def:WhereClauseRef WhereClauseOID="WC.IE.IETESTCD.EXC07"/>
            </ItemRef><ItemRef ItemOID="IT.IE.IEORRES.EXC08" Mandatory="No" OrderNumber="8">
               <def:WhereClauseRef WhereClauseOID="WC.IE.IETESTCD.EXC08"/>
            </ItemRef><ItemRef ItemOID="IT.IE.IEORRES.EXC09" Mandatory="No" OrderNumber="9">
               <def:WhereClauseRef WhereClauseOID="WC.IE.IETESTCD.EXC09"/>
            </ItemRef><ItemRef ItemOID="IT.IE.IEORRES.EXC10" Mandatory="No" OrderNumber="10"><def:WhereClauseRef WhereClauseOID="WC.IE.IETESTCD.EXC10"/></ItemRef><ItemRef ItemOID="IT.IE.IEORRES.EXC11" Mandatory="No" OrderNumber="11"><def:WhereClauseRef WhereClauseOID="WC.IE.IETESTCD.EXC11"/></ItemRef><ItemRef ItemOID="IT.IE.IEORRES.EXC12" Mandatory="No" OrderNumber="12"><def:WhereClauseRef WhereClauseOID="WC.IE.IETESTCD.EXC12"/></ItemRef><ItemRef ItemOID="IT.IE.IEORRES.EXC13" Mandatory="No" OrderNumber="13">
               <def:WhereClauseRef WhereClauseOID="WC.IE.IETESTCD.EXC13"/>
            </ItemRef><ItemRef ItemOID="IT.IE.IEORRES.EXC14" Mandatory="No" OrderNumber="14">
               <def:WhereClauseRef WhereClauseOID="WC.IE.IETESTCD.EXC14"/>
            </ItemRef><ItemRef ItemOID="IT.IE.IEORRES.EXC15" Mandatory="No" OrderNumber="15"><def:WhereClauseRef WhereClauseOID="WC.IE.IETESTCD.EXC15"/></ItemRef><ItemRef ItemOID="IT.IE.IEORRES.EXC16" Mandatory="No" OrderNumber="16"><def:WhereClauseRef WhereClauseOID="WC.IE.IETESTCD.EXC16"/></ItemRef><ItemRef ItemOID="IT.IE.IEORRES.EXC17" Mandatory="No" OrderNumber="17">
               <def:WhereClauseRef WhereClauseOID="WC.IE.IETESTCD.EXC17"/>
            </ItemRef><ItemRef ItemOID="IT.IE.IEORRES.EXC18" Mandatory="No" OrderNumber="18">
               <def:WhereClauseRef WhereClauseOID="WC.IE.IETESTCD.EXC18"/>
            </ItemRef><ItemRef ItemOID="IT.IE.IEORRES.EXC19" Mandatory="No" OrderNumber="19"><def:WhereClauseRef WhereClauseOID="WC.IE.IETESTCD.EXC19"/></ItemRef><ItemRef ItemOID="IT.IE.IEORRES.EXC20" Mandatory="No" OrderNumber="20"><def:WhereClauseRef WhereClauseOID="WC.IE.IETESTCD.EXC20"/></ItemRef><ItemRef ItemOID="IT.IE.IEORRES.EXC21" Mandatory="No" OrderNumber="21">
               <def:WhereClauseRef WhereClauseOID="WC.IE.IETESTCD.EXC21"/>
            </ItemRef><ItemRef ItemOID="IT.IE.IEORRES.EXC21_A1" Mandatory="No" OrderNumber="22"><def:WhereClauseRef WhereClauseOID="WC.IE.IETESTCD.EXC21_A1"/></ItemRef><ItemRef ItemOID="IT.IE.IEORRES.EXC22" Mandatory="No" OrderNumber="23"><def:WhereClauseRef WhereClauseOID="WC.IE.IETESTCD.EXC22"/></ItemRef><ItemRef ItemOID="IT.IE.IEORRES.EXC23" Mandatory="No" OrderNumber="24"><def:WhereClauseRef WhereClauseOID="WC.IE.IETESTCD.EXC23"/></ItemRef><ItemRef ItemOID="IT.IE.IEORRES.EXC24" Mandatory="No" OrderNumber="25">
               <def:WhereClauseRef WhereClauseOID="WC.IE.IETESTCD.EXC24"/>
            </ItemRef><ItemRef ItemOID="IT.IE.IEORRES.EXC25" Mandatory="No" OrderNumber="26">
               <def:WhereClauseRef WhereClauseOID="WC.IE.IETESTCD.EXC25"/>
            </ItemRef><ItemRef ItemOID="IT.IE.IEORRES.EXC26" Mandatory="No" OrderNumber="27">
               <def:WhereClauseRef WhereClauseOID="WC.IE.IETESTCD.EXC26"/>
            </ItemRef><ItemRef ItemOID="IT.IE.IEORRES.EXC27" Mandatory="No" OrderNumber="28">
               <def:WhereClauseRef WhereClauseOID="WC.IE.IETESTCD.EXC27"/>
            </ItemRef><ItemRef ItemOID="IT.IE.IEORRES.EXC28" Mandatory="No" OrderNumber="29">
               <def:WhereClauseRef WhereClauseOID="WC.IE.IETESTCD.EXC28"/>
            </ItemRef><ItemRef ItemOID="IT.IE.IEORRES.EXC29" Mandatory="No" OrderNumber="30">
               <def:WhereClauseRef WhereClauseOID="WC.IE.IETESTCD.EXC29"/>
            </ItemRef><ItemRef ItemOID="IT.IE.IEORRES.EXC30" Mandatory="No" OrderNumber="31"><def:WhereClauseRef WhereClauseOID="WC.IE.IETESTCD.EXC30"/></ItemRef><ItemRef ItemOID="IT.IE.IEORRES.INC01" Mandatory="No" OrderNumber="32">
               <def:WhereClauseRef WhereClauseOID="WC.IE.IETESTCD.INC01"/>
            </ItemRef><ItemRef ItemOID="IT.IE.IEORRES.INC02" Mandatory="No" OrderNumber="33">
               <def:WhereClauseRef WhereClauseOID="WC.IE.IETESTCD.INC02"/>
            </ItemRef><ItemRef ItemOID="IT.IE.IEORRES.INC03" Mandatory="No" OrderNumber="34">
               <def:WhereClauseRef WhereClauseOID="WC.IE.IETESTCD.INC03"/>
            </ItemRef><ItemRef ItemOID="IT.IE.IEORRES.INC04" Mandatory="No" OrderNumber="35"><def:WhereClauseRef WhereClauseOID="WC.IE.IETESTCD.INC04"/></ItemRef></def:ValueListDef><def:ValueListDef OID="VL.LB.LBCAT"><ItemRef ItemOID="IT.LB.LBCAT.CHEMISTRY" Mandatory="No" OrderNumber="1"><def:WhereClauseRef WhereClauseOID="WC.LB.LBCAT.CHEMISTRY"/></ItemRef><ItemRef ItemOID="IT.LB.LBCAT.NOT CHEMISTRY" Mandatory="No" OrderNumber="2"><def:WhereClauseRef WhereClauseOID="WC.LB.LBCAT.NOT CHEMISTRY"/></ItemRef></def:ValueListDef><def:ValueListDef OID="VL.LB.LBDTC"><ItemRef ItemOID="IT.LB.LBDTC.LB.LBCAT.CHEMISTRY" Mandatory="No" OrderNumber="3"><def:WhereClauseRef WhereClauseOID="WC.LB.LBCAT.CHEMISTRY"/></ItemRef><ItemRef ItemOID="IT.LB.LBDTC.LB.LBCAT.NOT CHEMISTRY" Mandatory="No" OrderNumber="4"><def:WhereClauseRef WhereClauseOID="WC.LB.LBCAT.NOT CHEMISTRY"/></ItemRef></def:ValueListDef><def:ValueListDef OID="VL.LB.LBNAM"><ItemRef ItemOID="IT.LB.LBNAM.LB.LBCAT.CHEMISTRY" Mandatory="No" OrderNumber="5"><def:WhereClauseRef WhereClauseOID="WC.LB.LBCAT.CHEMISTRY"/></ItemRef><ItemRef ItemOID="IT.LB.LBNAM.LB.LBCAT.NOT CHEMISTRY" Mandatory="No" OrderNumber="6"><def:WhereClauseRef WhereClauseOID="WC.LB.LBCAT.NOT CHEMISTRY"/></ItemRef></def:ValueListDef><def:ValueListDef OID="VL.LB.LBORNRHI"><ItemRef ItemOID="IT.LB.LBORNRHI.LB.LBCAT.CHEMISTRY" Mandatory="No" OrderNumber="7"><def:WhereClauseRef WhereClauseOID="WC.LB.LBCAT.CHEMISTRY"/></ItemRef><ItemRef ItemOID="IT.LB.LBORNRHI.LB.LBCAT.NOT CHEMISTRY" Mandatory="No" OrderNumber="8"><def:WhereClauseRef WhereClauseOID="WC.LB.LBCAT.NOT CHEMISTRY"/></ItemRef></def:ValueListDef><def:ValueListDef OID="VL.LB.LBORNRLO"><ItemRef ItemOID="IT.LB.LBORNRLO.LB.LBCAT.CHEMISTRY" Mandatory="No" OrderNumber="9"><def:WhereClauseRef WhereClauseOID="WC.LB.LBCAT.CHEMISTRY"/></ItemRef><ItemRef ItemOID="IT.LB.LBORNRLO.LB.LBCAT.NOT CHEMISTRY" Mandatory="No" OrderNumber="10"><def:WhereClauseRef WhereClauseOID="WC.LB.LBCAT.NOT CHEMISTRY"/></ItemRef></def:ValueListDef><def:ValueListDef OID="VL.LB.LBORRES"><ItemRef ItemOID="IT.LB.LBORRES.ALB" Mandatory="No" OrderNumber="11">
               <def:WhereClauseRef WhereClauseOID="WC.LB.LBTESTCD.ALB"/>
            </ItemRef><ItemRef ItemOID="IT.LB.LBORRES.ALBCREAT" Mandatory="No" OrderNumber="12">
               <def:WhereClauseRef WhereClauseOID="WC.LB.LBTESTCD.ALBCREAT"/>
            </ItemRef><ItemRef ItemOID="IT.LB.LBORRES.ALP" Mandatory="No" OrderNumber="13">
               <def:WhereClauseRef WhereClauseOID="WC.LB.LBTESTCD.ALP"/>
            </ItemRef><ItemRef ItemOID="IT.LB.LBORRES.ALPBS" Mandatory="No" OrderNumber="14">
               <def:WhereClauseRef WhereClauseOID="WC.LB.LBTESTCD.ALPBS"/>
            </ItemRef><ItemRef ItemOID="IT.LB.LBORRES.ALT" Mandatory="No" OrderNumber="15">
               <def:WhereClauseRef WhereClauseOID="WC.LB.LBTESTCD.ALT"/>
            </ItemRef><ItemRef ItemOID="IT.LB.LBORRES.AMPHET" Mandatory="No" OrderNumber="16">
               <def:WhereClauseRef WhereClauseOID="WC.LB.LBTESTCD.AMPHET"/>
            </ItemRef><ItemRef ItemOID="IT.LB.LBORRES.ANA" Mandatory="No" OrderNumber="18"><def:WhereClauseRef WhereClauseOID="WC.LB.LBTESTCD.ANA"/></ItemRef><ItemRef ItemOID="IT.LB.LBORRES.ANA2" Mandatory="No" OrderNumber="19"><def:WhereClauseRef WhereClauseOID="WC.LB.LBTESTCD.ANA2"/></ItemRef><ItemRef ItemOID="IT.LB.LBORRES.ANA3" Mandatory="No" OrderNumber="20"><def:WhereClauseRef WhereClauseOID="WC.LB.LBTESTCD.ANA3"/></ItemRef><ItemRef ItemOID="IT.LB.LBORRES.ANA4" Mandatory="No" OrderNumber="21"><def:WhereClauseRef WhereClauseOID="WC.LB.LBTESTCD.ANA4"/></ItemRef><ItemRef ItemOID="IT.LB.LBORRES.ANAP" Mandatory="No" OrderNumber="22"><def:WhereClauseRef WhereClauseOID="WC.LB.LBTESTCD.ANAP"/></ItemRef><ItemRef ItemOID="IT.LB.LBORRES.ANAP2" Mandatory="No" OrderNumber="23"><def:WhereClauseRef WhereClauseOID="WC.LB.LBTESTCD.ANAP2"/></ItemRef><ItemRef ItemOID="IT.LB.LBORRES.ANAP3" Mandatory="No" OrderNumber="24"><def:WhereClauseRef WhereClauseOID="WC.LB.LBTESTCD.ANAP3"/></ItemRef><ItemRef ItemOID="IT.LB.LBORRES.ANAS" Mandatory="No" OrderNumber="25">
               <def:WhereClauseRef WhereClauseOID="WC.LB.LBTESTCD.ANAS"/>
            </ItemRef><ItemRef ItemOID="IT.LB.LBORRES.ANP" Mandatory="No" OrderNumber="26"><def:WhereClauseRef WhereClauseOID="WC.LB.LBTESTCD.ANP"/></ItemRef><ItemRef ItemOID="IT.LB.LBORRES.APAPAD" Mandatory="No" OrderNumber="27">
               <def:WhereClauseRef WhereClauseOID="WC.LB.LBTESTCD.APAPAD"/>
            </ItemRef><ItemRef ItemOID="IT.LB.LBORRES.APTT" Mandatory="No" OrderNumber="28">
               <def:WhereClauseRef WhereClauseOID="WC.LB.LBTESTCD.APTT"/>
            </ItemRef><ItemRef ItemOID="IT.LB.LBORRES.AST" Mandatory="No" OrderNumber="29">
               <def:WhereClauseRef WhereClauseOID="WC.LB.LBTESTCD.AST"/>
            </ItemRef><ItemRef ItemOID="IT.LB.LBORRES.BARB" Mandatory="No" OrderNumber="30">
               <def:WhereClauseRef WhereClauseOID="WC.LB.LBTESTCD.BARB"/>
            </ItemRef><ItemRef ItemOID="IT.LB.LBORRES.BASO" Mandatory="No" OrderNumber="31">
               <def:WhereClauseRef WhereClauseOID="WC.LB.LBTESTCD.BASO"/>
            </ItemRef><ItemRef ItemOID="IT.LB.LBORRES.BASOLE" Mandatory="No" OrderNumber="32">
               <def:WhereClauseRef WhereClauseOID="WC.LB.LBTESTCD.BASOLE"/>
            </ItemRef><ItemRef ItemOID="IT.LB.LBORRES.BILDIR" Mandatory="No" OrderNumber="33">
               <def:WhereClauseRef WhereClauseOID="WC.LB.LBTESTCD.BILDIR"/>
            </ItemRef><ItemRef ItemOID="IT.LB.LBORRES.BILI" Mandatory="No" OrderNumber="34">
               <def:WhereClauseRef WhereClauseOID="WC.LB.LBTESTCD.BILI"/>
            </ItemRef><ItemRef ItemOID="IT.LB.LBORRES.BNP" Mandatory="No" OrderNumber="35"><def:WhereClauseRef WhereClauseOID="WC.LB.LBTESTCD.BNP"/></ItemRef><ItemRef ItemOID="IT.LB.LBORRES.BNPPRONT" Mandatory="No" OrderNumber="36"><def:WhereClauseRef WhereClauseOID="WC.LB.LBTESTCD.BNPPRONT"/></ItemRef><ItemRef ItemOID="IT.LB.LBORRES.BNZDZPN" Mandatory="No" OrderNumber="37">
               <def:WhereClauseRef WhereClauseOID="WC.LB.LBTESTCD.BNZDZPN"/>
            </ItemRef><ItemRef ItemOID="IT.LB.LBORRES.CANNABM" Mandatory="No" OrderNumber="17">
               <def:WhereClauseRef WhereClauseOID="WC.LB.LBTESTCD.CANNABM"/>
            </ItemRef><ItemRef ItemOID="IT.LB.LBORRES.CD4" Mandatory="No" OrderNumber="38">
               <def:WhereClauseRef WhereClauseOID="WC.LB.LBTESTCD.CD4"/>
            </ItemRef><ItemRef ItemOID="IT.LB.LBORRES.CD4CD8" Mandatory="No" OrderNumber="39">
               <def:WhereClauseRef WhereClauseOID="WC.LB.LBTESTCD.CD4CD8"/>
            </ItemRef><ItemRef ItemOID="IT.LB.LBORRES.CD4LY" Mandatory="No" OrderNumber="40">
               <def:WhereClauseRef WhereClauseOID="WC.LB.LBTESTCD.CD4LY"/>
            </ItemRef><ItemRef ItemOID="IT.LB.LBORRES.CD8" Mandatory="No" OrderNumber="41">
               <def:WhereClauseRef WhereClauseOID="WC.LB.LBTESTCD.CD8"/>
            </ItemRef><ItemRef ItemOID="IT.LB.LBORRES.CD8LY" Mandatory="No" OrderNumber="42">
               <def:WhereClauseRef WhereClauseOID="WC.LB.LBTESTCD.CD8LY"/>
            </ItemRef><ItemRef ItemOID="IT.LB.LBORRES.CHOL" Mandatory="No" OrderNumber="43">
               <def:WhereClauseRef WhereClauseOID="WC.LB.LBTESTCD.CHOL"/>
            </ItemRef><ItemRef ItemOID="IT.LB.LBORRES.CK" Mandatory="No" OrderNumber="44">
               <def:WhereClauseRef WhereClauseOID="WC.LB.LBTESTCD.CK"/>
            </ItemRef><ItemRef ItemOID="IT.LB.LBORRES.CKMB" Mandatory="No" OrderNumber="45"><def:WhereClauseRef WhereClauseOID="WC.LB.LBTESTCD.CKMB"/></ItemRef><ItemRef ItemOID="IT.LB.LBORRES.CKMBA" Mandatory="No" OrderNumber="46"><def:WhereClauseRef WhereClauseOID="WC.LB.LBTESTCD.CKMBA"/></ItemRef><ItemRef ItemOID="IT.LB.LBORRES.CKMBCK" Mandatory="No" OrderNumber="47"><def:WhereClauseRef WhereClauseOID="WC.LB.LBTESTCD.CKMBCK"/></ItemRef><ItemRef ItemOID="IT.LB.LBORRES.CL" Mandatory="No" OrderNumber="48">
               <def:WhereClauseRef WhereClauseOID="WC.LB.LBTESTCD.CL"/>
            </ItemRef><ItemRef ItemOID="IT.LB.LBORRES.CMVIGMAB" Mandatory="No" OrderNumber="49">
               <def:WhereClauseRef WhereClauseOID="WC.LB.LBTESTCD.CMVIGMAB"/>
            </ItemRef><ItemRef ItemOID="IT.LB.LBORRES.CMVMAB" Mandatory="No" OrderNumber="50">
               <def:WhereClauseRef WhereClauseOID="WC.LB.LBTESTCD.CMVMAB"/>
            </ItemRef><ItemRef ItemOID="IT.LB.LBORRES.CO2" Mandatory="No" OrderNumber="51">
               <def:WhereClauseRef WhereClauseOID="WC.LB.LBTESTCD.CO2"/>
            </ItemRef><ItemRef ItemOID="IT.LB.LBORRES.COCMETZ" Mandatory="No" OrderNumber="52">
               <def:WhereClauseRef WhereClauseOID="WC.LB.LBTESTCD.COCMETZ"/>
            </ItemRef><ItemRef ItemOID="IT.LB.LBORRES.CREAT" Mandatory="No" OrderNumber="53">
               <def:WhereClauseRef WhereClauseOID="WC.LB.LBTESTCD.CREAT"/>
            </ItemRef><ItemRef ItemOID="IT.LB.LBORRES.CREATX24" Mandatory="No" OrderNumber="54">
               <def:WhereClauseRef WhereClauseOID="WC.LB.LBTESTCD.CREATX24"/>
            </ItemRef><ItemRef ItemOID="IT.LB.LBORRES.CSRBC" Mandatory="No" OrderNumber="55"><def:WhereClauseRef WhereClauseOID="WC.LB.LBTESTCD.CSRBC"/></ItemRef><ItemRef ItemOID="IT.LB.LBORRES.CSWBC" Mandatory="No" OrderNumber="56">
               <def:WhereClauseRef WhereClauseOID="WC.LB.LBTESTCD.CSWBC"/>
            </ItemRef><ItemRef ItemOID="IT.LB.LBORRES.CTXI" Mandatory="No" OrderNumber="57">
               <def:WhereClauseRef WhereClauseOID="WC.LB.LBTESTCD.CTXI"/>
            </ItemRef><ItemRef ItemOID="IT.LB.LBORRES.CYSTATC" Mandatory="No" OrderNumber="58">
               <def:WhereClauseRef WhereClauseOID="WC.LB.LBTESTCD.CYSTATC"/>
            </ItemRef><ItemRef ItemOID="IT.LB.LBORRES.EBCIGMAB" Mandatory="No" OrderNumber="59">
               <def:WhereClauseRef WhereClauseOID="WC.LB.LBTESTCD.EBCIGMAB"/>
            </ItemRef><ItemRef ItemOID="IT.LB.LBORRES.EBVMABZ" Mandatory="No" OrderNumber="60">
               <def:WhereClauseRef WhereClauseOID="WC.LB.LBTESTCD.EBVMABZ"/>
            </ItemRef><ItemRef ItemOID="IT.LB.LBORRES.EBVMSOS" Mandatory="No" OrderNumber="61">
               <def:WhereClauseRef WhereClauseOID="WC.LB.LBTESTCD.EBVMSOS"/>
            </ItemRef><ItemRef ItemOID="IT.LB.LBORRES.EOS" Mandatory="No" OrderNumber="62">
               <def:WhereClauseRef WhereClauseOID="WC.LB.LBTESTCD.EOS"/>
            </ItemRef><ItemRef ItemOID="IT.LB.LBORRES.EOSLE" Mandatory="No" OrderNumber="63">
               <def:WhereClauseRef WhereClauseOID="WC.LB.LBTESTCD.EOSLE"/>
            </ItemRef><ItemRef ItemOID="IT.LB.LBORRES.ETHANOL" Mandatory="No" OrderNumber="64">
               <def:WhereClauseRef WhereClauseOID="WC.LB.LBTESTCD.ETHANOL"/>
            </ItemRef><ItemRef ItemOID="IT.LB.LBORRES.FIB4S" Mandatory="No" OrderNumber="65">
               <def:WhereClauseRef WhereClauseOID="WC.LB.LBTESTCD.FIB4S"/>
            </ItemRef><ItemRef ItemOID="IT.LB.LBORRES.GFRBSCRT" Mandatory="No" OrderNumber="66">
               <def:WhereClauseRef WhereClauseOID="WC.LB.LBTESTCD.GFRBSCRT"/>
            </ItemRef><ItemRef ItemOID="IT.LB.LBORRES.GLUC" Mandatory="No" OrderNumber="67">
               <def:WhereClauseRef WhereClauseOID="WC.LB.LBTESTCD.GLUC"/>
            </ItemRef><ItemRef ItemOID="IT.LB.LBORRES.HAIGMABZ" Mandatory="No" OrderNumber="68">
               <def:WhereClauseRef WhereClauseOID="WC.LB.LBTESTCD.HAIGMABZ"/>
            </ItemRef><ItemRef ItemOID="IT.LB.LBORRES.HBSAB" Mandatory="No" OrderNumber="69">
               <def:WhereClauseRef WhereClauseOID="WC.LB.LBTESTCD.HBSAB"/>
            </ItemRef><ItemRef ItemOID="IT.LB.LBORRES.HBSAGCZ" Mandatory="No" OrderNumber="70">
               <def:WhereClauseRef WhereClauseOID="WC.LB.LBTESTCD.HBSAGCZ"/>
            </ItemRef><ItemRef ItemOID="IT.LB.LBORRES.HBSAGZ" Mandatory="No" OrderNumber="71">
               <def:WhereClauseRef WhereClauseOID="WC.LB.LBTESTCD.HBSAGZ"/>
            </ItemRef><ItemRef ItemOID="IT.LB.LBORRES.HBVCABZ" Mandatory="No" OrderNumber="72">
               <def:WhereClauseRef WhereClauseOID="WC.LB.LBTESTCD.HBVCABZ"/>
            </ItemRef><ItemRef ItemOID="IT.LB.LBORRES.HBVCMZ" Mandatory="No" OrderNumber="73">
               <def:WhereClauseRef WhereClauseOID="WC.LB.LBTESTCD.HBVCMZ"/>
            </ItemRef><ItemRef ItemOID="IT.LB.LBORRES.HBVDNA" Mandatory="No" OrderNumber="74">
               <def:WhereClauseRef WhereClauseOID="WC.LB.LBTESTCD.HBVDNA"/>
            </ItemRef><ItemRef ItemOID="IT.LB.LBORRES.HBVDNAC" Mandatory="No" OrderNumber="75">
               <def:WhereClauseRef WhereClauseOID="WC.LB.LBTESTCD.HBVDNAC"/>
            </ItemRef><ItemRef ItemOID="IT.LB.LBORRES.HBVDNAL" Mandatory="No" OrderNumber="76">
               <def:WhereClauseRef WhereClauseOID="WC.LB.LBTESTCD.HBVDNAL"/>
            </ItemRef><ItemRef ItemOID="IT.LB.LBORRES.HCT" Mandatory="No" OrderNumber="77">
               <def:WhereClauseRef WhereClauseOID="WC.LB.LBTESTCD.HCT"/>
            </ItemRef><ItemRef ItemOID="IT.LB.LBORRES.HCVABZ" Mandatory="No" OrderNumber="78">
               <def:WhereClauseRef WhereClauseOID="WC.LB.LBTESTCD.HCVABZ"/>
            </ItemRef><ItemRef ItemOID="IT.LB.LBORRES.HCVRNA" Mandatory="No" OrderNumber="79">
               <def:WhereClauseRef WhereClauseOID="WC.LB.LBTESTCD.HCVRNA"/>
            </ItemRef><ItemRef ItemOID="IT.LB.LBORRES.HCVRNAL" Mandatory="No" OrderNumber="80">
               <def:WhereClauseRef WhereClauseOID="WC.LB.LBTESTCD.HCVRNAL"/>
            </ItemRef><ItemRef ItemOID="IT.LB.LBORRES.HDLDIR" Mandatory="No" OrderNumber="81">
               <def:WhereClauseRef WhereClauseOID="WC.LB.LBTESTCD.HDLDIR"/>
            </ItemRef><ItemRef ItemOID="IT.LB.LBORRES.HEVMABZ" Mandatory="No" OrderNumber="82">
               <def:WhereClauseRef WhereClauseOID="WC.LB.LBTESTCD.HEVMABZ"/>
            </ItemRef><ItemRef ItemOID="IT.LB.LBORRES.HGB" Mandatory="No" OrderNumber="83">
               <def:WhereClauseRef WhereClauseOID="WC.LB.LBTESTCD.HGB"/>
            </ItemRef><ItemRef ItemOID="IT.LB.LBORRES.HIV1RNA" Mandatory="No" OrderNumber="84">
               <def:WhereClauseRef WhereClauseOID="WC.LB.LBTESTCD.HIV1RNA"/>
            </ItemRef><ItemRef ItemOID="IT.LB.LBORRES.HIV1RNAI" Mandatory="No" OrderNumber="85">
               <def:WhereClauseRef WhereClauseOID="WC.LB.LBTESTCD.HIV1RNAI"/>
            </ItemRef><ItemRef ItemOID="IT.LB.LBORRES.HIV1RNAL" Mandatory="No" OrderNumber="86">
               <def:WhereClauseRef WhereClauseOID="WC.LB.LBTESTCD.HIV1RNAL"/>
            </ItemRef><ItemRef ItemOID="IT.LB.LBORRES.IGG" Mandatory="No" OrderNumber="87">
               <def:WhereClauseRef WhereClauseOID="WC.LB.LBTESTCD.IGG"/>
            </ItemRef><ItemRef ItemOID="IT.LB.LBORRES.INR" Mandatory="No" OrderNumber="88">
               <def:WhereClauseRef WhereClauseOID="WC.LB.LBTESTCD.INR"/>
            </ItemRef><ItemRef ItemOID="IT.LB.LBORRES.K" Mandatory="No" OrderNumber="89">
               <def:WhereClauseRef WhereClauseOID="WC.LB.LBTESTCD.K"/>
            </ItemRef><ItemRef ItemOID="IT.LB.LBORRES.KETONES" Mandatory="No" OrderNumber="90">
               <def:WhereClauseRef WhereClauseOID="WC.LB.LBTESTCD.KETONES"/>
            </ItemRef><ItemRef ItemOID="IT.LB.LBORRES.LDH" Mandatory="No" OrderNumber="91">
               <def:WhereClauseRef WhereClauseOID="WC.LB.LBTESTCD.LDH"/>
            </ItemRef><ItemRef ItemOID="IT.LB.LBORRES.LDLCC" Mandatory="No" OrderNumber="92">
               <def:WhereClauseRef WhereClauseOID="WC.LB.LBTESTCD.LDLCC"/>
            </ItemRef><ItemRef ItemOID="IT.LB.LBORRES.LDLD" Mandatory="No" OrderNumber="93">
               <def:WhereClauseRef WhereClauseOID="WC.LB.LBTESTCD.LDLD"/>
            </ItemRef><ItemRef ItemOID="IT.LB.LBORRES.LEUKASE" Mandatory="No" OrderNumber="94">
               <def:WhereClauseRef WhereClauseOID="WC.LB.LBTESTCD.LEUKASE"/>
            </ItemRef><ItemRef ItemOID="IT.LB.LBORRES.LIPASET" Mandatory="No" OrderNumber="95">
               <def:WhereClauseRef WhereClauseOID="WC.LB.LBTESTCD.LIPASET"/>
            </ItemRef><ItemRef ItemOID="IT.LB.LBORRES.LKM1IGAB" Mandatory="No" OrderNumber="96">
               <def:WhereClauseRef WhereClauseOID="WC.LB.LBTESTCD.LKM1IGAB"/>
            </ItemRef><ItemRef ItemOID="IT.LB.LBORRES.LYM" Mandatory="No" OrderNumber="97">
               <def:WhereClauseRef WhereClauseOID="WC.LB.LBTESTCD.LYM"/>
            </ItemRef><ItemRef ItemOID="IT.LB.LBORRES.LYMLE" Mandatory="No" OrderNumber="98">
               <def:WhereClauseRef WhereClauseOID="WC.LB.LBTESTCD.LYMLE"/>
            </ItemRef><ItemRef ItemOID="IT.LB.LBORRES.MCH" Mandatory="No" OrderNumber="99"><def:WhereClauseRef WhereClauseOID="WC.LB.LBTESTCD.MCH"/></ItemRef><ItemRef ItemOID="IT.LB.LBORRES.MCHC" Mandatory="No" OrderNumber="100"><def:WhereClauseRef WhereClauseOID="WC.LB.LBTESTCD.MCHC"/></ItemRef><ItemRef ItemOID="IT.LB.LBORRES.MCV" Mandatory="No" OrderNumber="101">
               <def:WhereClauseRef WhereClauseOID="WC.LB.LBTESTCD.MCV"/>
            </ItemRef><ItemRef ItemOID="IT.LB.LBORRES.METHDN" Mandatory="No" OrderNumber="102">
               <def:WhereClauseRef WhereClauseOID="WC.LB.LBTESTCD.METHDN"/>
            </ItemRef><ItemRef ItemOID="IT.LB.LBORRES.MONO" Mandatory="No" OrderNumber="103">
               <def:WhereClauseRef WhereClauseOID="WC.LB.LBTESTCD.MONO"/>
            </ItemRef><ItemRef ItemOID="IT.LB.LBORRES.MONOLE" Mandatory="No" OrderNumber="104">
               <def:WhereClauseRef WhereClauseOID="WC.LB.LBTESTCD.MONOLE"/>
            </ItemRef><ItemRef ItemOID="IT.LB.LBORRES.MPV" Mandatory="No" OrderNumber="105"><def:WhereClauseRef WhereClauseOID="WC.LB.LBTESTCD.MPV"/></ItemRef><ItemRef ItemOID="IT.LB.LBORRES.NEUT" Mandatory="No" OrderNumber="106">
               <def:WhereClauseRef WhereClauseOID="WC.LB.LBTESTCD.NEUT"/>
            </ItemRef><ItemRef ItemOID="IT.LB.LBORRES.NEUTB" Mandatory="No" OrderNumber="107"><def:WhereClauseRef WhereClauseOID="WC.LB.LBTESTCD.NEUTB"/></ItemRef><ItemRef ItemOID="IT.LB.LBORRES.NEUTBLE" Mandatory="No" OrderNumber="108"><def:WhereClauseRef WhereClauseOID="WC.LB.LBTESTCD.NEUTBLE"/></ItemRef><ItemRef ItemOID="IT.LB.LBORRES.NEUTLE" Mandatory="No" OrderNumber="109">
               <def:WhereClauseRef WhereClauseOID="WC.LB.LBTESTCD.NEUTLE"/>
            </ItemRef><ItemRef ItemOID="IT.LB.LBORRES.NEUTSG" Mandatory="No" OrderNumber="110">
               <def:WhereClauseRef WhereClauseOID="WC.LB.LBTESTCD.NEUTSG"/>
            </ItemRef><ItemRef ItemOID="IT.LB.LBORRES.NEUTSGLE" Mandatory="No" OrderNumber="111">
               <def:WhereClauseRef WhereClauseOID="WC.LB.LBTESTCD.NEUTSGLE"/>
            </ItemRef><ItemRef ItemOID="IT.LB.LBORRES.NITRITE" Mandatory="No" OrderNumber="112">
               <def:WhereClauseRef WhereClauseOID="WC.LB.LBTESTCD.NITRITE"/>
            </ItemRef><ItemRef ItemOID="IT.LB.LBORRES.OCCBLD" Mandatory="No" OrderNumber="113">
               <def:WhereClauseRef WhereClauseOID="WC.LB.LBTESTCD.OCCBLD"/>
            </ItemRef><ItemRef ItemOID="IT.LB.LBORRES.OPIATE" Mandatory="No" OrderNumber="114">
               <def:WhereClauseRef WhereClauseOID="WC.LB.LBTESTCD.OPIATE"/>
            </ItemRef><ItemRef ItemOID="IT.LB.LBORRES.OSTEOC" Mandatory="No" OrderNumber="115">
               <def:WhereClauseRef WhereClauseOID="WC.LB.LBTESTCD.OSTEOC"/>
            </ItemRef><ItemRef ItemOID="IT.LB.LBORRES.P1NP" Mandatory="No" OrderNumber="116">
               <def:WhereClauseRef WhereClauseOID="WC.LB.LBTESTCD.P1NP"/>
            </ItemRef><ItemRef ItemOID="IT.LB.LBORRES.PCP" Mandatory="No" OrderNumber="117">
               <def:WhereClauseRef WhereClauseOID="WC.LB.LBTESTCD.PCP"/>
            </ItemRef><ItemRef ItemOID="IT.LB.LBORRES.PH" Mandatory="No" OrderNumber="118">
               <def:WhereClauseRef WhereClauseOID="WC.LB.LBTESTCD.PH"/>
            </ItemRef><ItemRef ItemOID="IT.LB.LBORRES.PHOS" Mandatory="No" OrderNumber="119">
               <def:WhereClauseRef WhereClauseOID="WC.LB.LBTESTCD.PHOS"/>
            </ItemRef><ItemRef ItemOID="IT.LB.LBORRES.PLAT" Mandatory="No" OrderNumber="120">
               <def:WhereClauseRef WhereClauseOID="WC.LB.LBTESTCD.PLAT"/>
            </ItemRef><ItemRef ItemOID="IT.LB.LBORRES.PROPOX" Mandatory="No" OrderNumber="121">
               <def:WhereClauseRef WhereClauseOID="WC.LB.LBTESTCD.PROPOX"/>
            </ItemRef><ItemRef ItemOID="IT.LB.LBORRES.PROT" Mandatory="No" OrderNumber="122">
               <def:WhereClauseRef WhereClauseOID="WC.LB.LBTESTCD.PROT"/>
            </ItemRef><ItemRef ItemOID="IT.LB.LBORRES.PROTCRT" Mandatory="No" OrderNumber="123">
               <def:WhereClauseRef WhereClauseOID="WC.LB.LBTESTCD.PROTCRT"/>
            </ItemRef><ItemRef ItemOID="IT.LB.LBORRES.PT" Mandatory="No" OrderNumber="124">
               <def:WhereClauseRef WhereClauseOID="WC.LB.LBTESTCD.PT"/>
            </ItemRef><ItemRef ItemOID="IT.LB.LBORRES.RBC" Mandatory="No" OrderNumber="125">
               <def:WhereClauseRef WhereClauseOID="WC.LB.LBTESTCD.RBC"/>
            </ItemRef><ItemRef ItemOID="IT.LB.LBORRES.RBP" Mandatory="No" OrderNumber="126">
               <def:WhereClauseRef WhereClauseOID="WC.LB.LBTESTCD.RBP"/>
            </ItemRef><ItemRef ItemOID="IT.LB.LBORRES.RDW" Mandatory="No" OrderNumber="127"><def:WhereClauseRef WhereClauseOID="WC.LB.LBTESTCD.RDW"/></ItemRef><ItemRef ItemOID="IT.LB.LBORRES.RPRT" Mandatory="No" OrderNumber="128">
               <def:WhereClauseRef WhereClauseOID="WC.LB.LBTESTCD.RPRT"/>
            </ItemRef><ItemRef ItemOID="IT.LB.LBORRES.RPRZ" Mandatory="No" OrderNumber="129">
               <def:WhereClauseRef WhereClauseOID="WC.LB.LBTESTCD.RPRZ"/>
            </ItemRef><ItemRef ItemOID="IT.LB.LBORRES.SMUSCGAB" Mandatory="No" OrderNumber="130">
               <def:WhereClauseRef WhereClauseOID="WC.LB.LBTESTCD.SMUSCGAB"/>
            </ItemRef><ItemRef ItemOID="IT.LB.LBORRES.SODIUM" Mandatory="No" OrderNumber="131">
               <def:WhereClauseRef WhereClauseOID="WC.LB.LBTESTCD.SODIUM"/>
            </ItemRef><ItemRef ItemOID="IT.LB.LBORRES.SPGRAV" Mandatory="No" OrderNumber="132">
               <def:WhereClauseRef WhereClauseOID="WC.LB.LBTESTCD.SPGRAV"/>
            </ItemRef><ItemRef ItemOID="IT.LB.LBORRES.SYPTZ" Mandatory="No" OrderNumber="133">
               <def:WhereClauseRef WhereClauseOID="WC.LB.LBTESTCD.SYPTZ"/>
            </ItemRef><ItemRef ItemOID="IT.LB.LBORRES.TPPABZ" Mandatory="No" OrderNumber="134">
               <def:WhereClauseRef WhereClauseOID="WC.LB.LBTESTCD.TPPABZ"/>
            </ItemRef><ItemRef ItemOID="IT.LB.LBORRES.TRIG" Mandatory="No" OrderNumber="135">
               <def:WhereClauseRef WhereClauseOID="WC.LB.LBTESTCD.TRIG"/>
            </ItemRef><ItemRef ItemOID="IT.LB.LBORRES.TROPONI" Mandatory="No" OrderNumber="136"><def:WhereClauseRef WhereClauseOID="WC.LB.LBTESTCD.TROPONI"/></ItemRef><ItemRef ItemOID="IT.LB.LBORRES.TROPONT" Mandatory="No" OrderNumber="137"><def:WhereClauseRef WhereClauseOID="WC.LB.LBTESTCD.TROPONT"/></ItemRef><ItemRef ItemOID="IT.LB.LBORRES.UREA" Mandatory="No" OrderNumber="138">
               <def:WhereClauseRef WhereClauseOID="WC.LB.LBTESTCD.UREA"/>
            </ItemRef><ItemRef ItemOID="IT.LB.LBORRES.VITDIT" Mandatory="No" OrderNumber="139">
               <def:WhereClauseRef WhereClauseOID="WC.LB.LBTESTCD.VITDIT"/>
            </ItemRef><ItemRef ItemOID="IT.LB.LBORRES.WBC" Mandatory="No" OrderNumber="140">
               <def:WhereClauseRef WhereClauseOID="WC.LB.LBTESTCD.WBC"/>
            </ItemRef></def:ValueListDef><def:ValueListDef OID="VL.LB.LBORRESU"><ItemRef ItemOID="IT.LB.LBORRESU.LB.LBCAT.CHEMISTRY" Mandatory="No" OrderNumber="141"><def:WhereClauseRef WhereClauseOID="WC.LB.LBCAT.CHEMISTRY"/></ItemRef><ItemRef ItemOID="IT.LB.LBORRESU.LB.LBCAT.NOT CHEMISTRY" Mandatory="No" OrderNumber="142"><def:WhereClauseRef WhereClauseOID="WC.LB.LBCAT.NOT CHEMISTRY"/></ItemRef></def:ValueListDef><def:ValueListDef OID="VL.LB.LBTEST"><ItemRef ItemOID="IT.LB.LBTEST.LB.LBCAT.CHEMISTRY" Mandatory="No" OrderNumber="143"><def:WhereClauseRef WhereClauseOID="WC.LB.LBCAT.CHEMISTRY"/></ItemRef><ItemRef ItemOID="IT.LB.LBTEST.LB.LBCAT.NOT CHEMISTRY" Mandatory="No" OrderNumber="144"><def:WhereClauseRef WhereClauseOID="WC.LB.LBCAT.NOT CHEMISTRY"/></ItemRef></def:ValueListDef><def:ValueListDef OID="VL.MO.MOORRES"><ItemRef ItemOID="IT.MO.MOORRES.ASCTPRS" Mandatory="No" OrderNumber="1">
               <def:WhereClauseRef WhereClauseOID="WC.MO.MOTESTCD.ASCTPRS"/>
            </ItemRef><ItemRef ItemOID="IT.MO.MOORRES.BLYDCLS" Mandatory="No" OrderNumber="2">
               <def:WhereClauseRef WhereClauseOID="WC.MO.MOTESTCD.BLYDCLS"/>
            </ItemRef><ItemRef ItemOID="IT.MO.MOORRES.FOHEPLS" Mandatory="No" OrderNumber="3">
               <def:WhereClauseRef WhereClauseOID="WC.MO.MOTESTCD.FOHEPLS"/>
            </ItemRef><ItemRef ItemOID="IT.MO.MOORRES.GSTGBLLS" Mandatory="No" OrderNumber="4">
               <def:WhereClauseRef WhereClauseOID="WC.MO.MOTESTCD.GSTGBLLS"/>
            </ItemRef><ItemRef ItemOID="IT.MO.MOORRES.IFTGR" Mandatory="No" OrderNumber="5">
               <def:WhereClauseRef WhereClauseOID="WC.MO.MOTESTCD.IFTGR"/>
            </ItemRef><ItemRef ItemOID="IT.MO.MOORRES.IMGADQ" Mandatory="No" OrderNumber="6">
               <def:WhereClauseRef WhereClauseOID="WC.MO.MOTESTCD.IMGADQ"/>
            </ItemRef><ItemRef ItemOID="IT.MO.MOORRES.PORHVNAB" Mandatory="No" OrderNumber="7">
               <def:WhereClauseRef WhereClauseOID="WC.MO.MOTESTCD.PORHVNAB"/>
            </ItemRef><ItemRef ItemOID="IT.MO.MOORRES.SIZE" Mandatory="No" OrderNumber="8">
               <def:WhereClauseRef WhereClauseOID="WC.MO.MOTESTCD.SIZE"/>
            </ItemRef><ItemRef ItemOID="IT.MO.MOORRES.TEXTURE" Mandatory="No" OrderNumber="9">
               <def:WhereClauseRef WhereClauseOID="WC.MO.MOTESTCD.TEXTURE"/>
            </ItemRef></def:ValueListDef><def:ValueListDef OID="VL.PC.PCORRES"><ItemRef ItemOID="IT.PC.PCORRES.ANAL0012" Mandatory="No" OrderNumber="1">
               <def:WhereClauseRef WhereClauseOID="WC.PC.PCTESTCD.ANAL0012"/>
            </ItemRef><ItemRef ItemOID="IT.PC.PCORRES.ANAL0064" Mandatory="No" OrderNumber="2">
               <def:WhereClauseRef WhereClauseOID="WC.PC.PCTESTCD.ANAL0064"/>
            </ItemRef><ItemRef ItemOID="IT.PC.PCORRES.PCALL" Mandatory="No" OrderNumber="3">
               <def:WhereClauseRef WhereClauseOID="WC.PC.PCTESTCD.PCALL"/>
            </ItemRef></def:ValueListDef><def:ValueListDef OID="VL.PF.PFORRES"><ItemRef ItemOID="IT.PF.PFORRES.AA" Mandatory="No" OrderNumber="1">
               <def:WhereClauseRef WhereClauseOID="WC.PF.PFTESTCD.AA"/>
            </ItemRef><ItemRef ItemOID="IT.PF.PFORRES.FOLDCHG" Mandatory="No" OrderNumber="2">
               <def:WhereClauseRef WhereClauseOID="WC.PF.PFTESTCD.FOLDCHG"/>
            </ItemRef><ItemRef ItemOID="IT.PF.PFORRES.GSASM" Mandatory="No" OrderNumber="3">
               <def:WhereClauseRef WhereClauseOID="WC.PF.PFTESTCD.GSASM"/>
            </ItemRef><ItemRef ItemOID="IT.PF.PFORRES.IC50" Mandatory="No" OrderNumber="4">
               <def:WhereClauseRef WhereClauseOID="WC.PF.PFTESTCD.IC50"/>
            </ItemRef><ItemRef ItemOID="IT.PF.PFORRES.IC95" Mandatory="No" OrderNumber="5">
               <def:WhereClauseRef WhereClauseOID="WC.PF.PFTESTCD.IC95"/>
            </ItemRef><ItemRef ItemOID="IT.PF.PFORRES.INTP" Mandatory="No" OrderNumber="6">
               <def:WhereClauseRef WhereClauseOID="WC.PF.PFTESTCD.INTP"/>
            </ItemRef><ItemRef ItemOID="IT.PF.PFORRES.MAXFLDCH" Mandatory="No" OrderNumber="7">
               <def:WhereClauseRef WhereClauseOID="WC.PF.PFTESTCD.MAXFLDCH"/>
            </ItemRef><ItemRef ItemOID="IT.PF.PFORRES.NETASMT" Mandatory="No" OrderNumber="8">
               <def:WhereClauseRef WhereClauseOID="WC.PF.PFTESTCD.NETASMT"/>
            </ItemRef><ItemRef ItemOID="IT.PF.PFORRES.PSASM" Mandatory="No" OrderNumber="9">
               <def:WhereClauseRef WhereClauseOID="WC.PF.PFTESTCD.PSASM"/>
            </ItemRef><ItemRef ItemOID="IT.PF.PFORRES.RC" Mandatory="No" OrderNumber="10">
               <def:WhereClauseRef WhereClauseOID="WC.PF.PFTESTCD.RC"/>
            </ItemRef><ItemRef ItemOID="IT.PF.PFORRES.REFIC50" Mandatory="No" OrderNumber="11">
               <def:WhereClauseRef WhereClauseOID="WC.PF.PFTESTCD.REFIC50"/>
            </ItemRef><ItemRef ItemOID="IT.PF.PFORRES.REFIC95" Mandatory="No" OrderNumber="12">
               <def:WhereClauseRef WhereClauseOID="WC.PF.PFTESTCD.REFIC95"/>
            </ItemRef></def:ValueListDef><def:ValueListDef OID="VL.QS.QSORRES"><ItemRef ItemOID="IT.QS.QSORRES.CTA0201" Mandatory="No" OrderNumber="1">
               <def:WhereClauseRef WhereClauseOID="WC.QS.QSTESTCD.CTA0201"/>
            </ItemRef><ItemRef ItemOID="IT.QS.QSORRES.CTA0202" Mandatory="No" OrderNumber="2">
               <def:WhereClauseRef WhereClauseOID="WC.QS.QSTESTCD.CTA0202"/>
            </ItemRef><ItemRef ItemOID="IT.QS.QSORRES.CTA0203" Mandatory="No" OrderNumber="3">
               <def:WhereClauseRef WhereClauseOID="WC.QS.QSTESTCD.CTA0203"/>
            </ItemRef><ItemRef ItemOID="IT.QS.QSORRES.ECS0301" Mandatory="No" OrderNumber="4">
               <def:WhereClauseRef WhereClauseOID="WC.QS.QSTESTCD.ECS0301"/>
            </ItemRef><ItemRef ItemOID="IT.QS.QSORRES.ECS0302" Mandatory="No" OrderNumber="5">
               <def:WhereClauseRef WhereClauseOID="WC.QS.QSTESTCD.ECS0302"/>
            </ItemRef><ItemRef ItemOID="IT.QS.QSORRES.ECS0303" Mandatory="No" OrderNumber="6">
               <def:WhereClauseRef WhereClauseOID="WC.QS.QSTESTCD.ECS0303"/>
            </ItemRef><ItemRef ItemOID="IT.QS.QSORRES.ECS0304" Mandatory="No" OrderNumber="7">
               <def:WhereClauseRef WhereClauseOID="WC.QS.QSTESTCD.ECS0304"/>
            </ItemRef><ItemRef ItemOID="IT.QS.QSORRES.ECS0305" Mandatory="No" OrderNumber="8">
               <def:WhereClauseRef WhereClauseOID="WC.QS.QSTESTCD.ECS0305"/>
            </ItemRef><ItemRef ItemOID="IT.QS.QSORRES.ECS0306" Mandatory="No" OrderNumber="9">
               <def:WhereClauseRef WhereClauseOID="WC.QS.QSTESTCD.ECS0306"/>
            </ItemRef><ItemRef ItemOID="IT.QS.QSORRES.ECS0307" Mandatory="No" OrderNumber="10">
               <def:WhereClauseRef WhereClauseOID="WC.QS.QSTESTCD.ECS0307"/>
            </ItemRef><ItemRef ItemOID="IT.QS.QSORRES.ECS0308" Mandatory="No" OrderNumber="11">
               <def:WhereClauseRef WhereClauseOID="WC.QS.QSTESTCD.ECS0308"/>
            </ItemRef><ItemRef ItemOID="IT.QS.QSORRES.ECS0309" Mandatory="No" OrderNumber="12">
               <def:WhereClauseRef WhereClauseOID="WC.QS.QSTESTCD.ECS0309"/>
            </ItemRef><ItemRef ItemOID="IT.QS.QSORRES.ECS0310" Mandatory="No" OrderNumber="13">
               <def:WhereClauseRef WhereClauseOID="WC.QS.QSTESTCD.ECS0310"/>
            </ItemRef><ItemRef ItemOID="IT.QS.QSORRES.ECS0311" Mandatory="No" OrderNumber="14">
               <def:WhereClauseRef WhereClauseOID="WC.QS.QSTESTCD.ECS0311"/>
            </ItemRef><ItemRef ItemOID="IT.QS.QSORRES.ECS0312" Mandatory="No" OrderNumber="15">
               <def:WhereClauseRef WhereClauseOID="WC.QS.QSTESTCD.ECS0312"/>
            </ItemRef><ItemRef ItemOID="IT.QS.QSORRES.ECS0313" Mandatory="No" OrderNumber="16">
               <def:WhereClauseRef WhereClauseOID="WC.QS.QSTESTCD.ECS0313"/>
            </ItemRef><ItemRef ItemOID="IT.QS.QSORRES.ECS0314" Mandatory="No" OrderNumber="17">
               <def:WhereClauseRef WhereClauseOID="WC.QS.QSTESTCD.ECS0314"/>
            </ItemRef><ItemRef ItemOID="IT.QS.QSORRES.ECS0315" Mandatory="No" OrderNumber="18">
               <def:WhereClauseRef WhereClauseOID="WC.QS.QSTESTCD.ECS0315"/>
            </ItemRef><ItemRef ItemOID="IT.QS.QSORRES.ECS0316" Mandatory="No" OrderNumber="19">
               <def:WhereClauseRef WhereClauseOID="WC.QS.QSTESTCD.ECS0316"/>
            </ItemRef><ItemRef ItemOID="IT.QS.QSORRES.ECS0317" Mandatory="No" OrderNumber="20">
               <def:WhereClauseRef WhereClauseOID="WC.QS.QSTESTCD.ECS0317"/>
            </ItemRef><ItemRef ItemOID="IT.QS.QSORRES.ECS0318" Mandatory="No" OrderNumber="21">
               <def:WhereClauseRef WhereClauseOID="WC.QS.QSTESTCD.ECS0318"/>
            </ItemRef><ItemRef ItemOID="IT.QS.QSORRES.ECS0319" Mandatory="No" OrderNumber="22">
               <def:WhereClauseRef WhereClauseOID="WC.QS.QSTESTCD.ECS0319"/>
            </ItemRef><ItemRef ItemOID="IT.QS.QSORRES.ECS0320" Mandatory="No" OrderNumber="23">
               <def:WhereClauseRef WhereClauseOID="WC.QS.QSTESTCD.ECS0320"/>
            </ItemRef><ItemRef ItemOID="IT.QS.QSORRES.ECS0321" Mandatory="No" OrderNumber="24">
               <def:WhereClauseRef WhereClauseOID="WC.QS.QSTESTCD.ECS0321"/>
            </ItemRef><ItemRef ItemOID="IT.QS.QSORRES.ECS0322" Mandatory="No" OrderNumber="25">
               <def:WhereClauseRef WhereClauseOID="WC.QS.QSTESTCD.ECS0322"/>
            </ItemRef><ItemRef ItemOID="IT.QS.QSORRES.ECS0323" Mandatory="No" OrderNumber="26">
               <def:WhereClauseRef WhereClauseOID="WC.QS.QSTESTCD.ECS0323"/>
            </ItemRef><ItemRef ItemOID="IT.QS.QSORRES.ECS0324" Mandatory="No" OrderNumber="27">
               <def:WhereClauseRef WhereClauseOID="WC.QS.QSTESTCD.ECS0324"/>
            </ItemRef><ItemRef ItemOID="IT.QS.QSORRES.ECS0325" Mandatory="No" OrderNumber="28">
               <def:WhereClauseRef WhereClauseOID="WC.QS.QSTESTCD.ECS0325"/>
            </ItemRef><ItemRef ItemOID="IT.QS.QSORRES.ECS0326" Mandatory="No" OrderNumber="29">
               <def:WhereClauseRef WhereClauseOID="WC.QS.QSTESTCD.ECS0326"/>
            </ItemRef><ItemRef ItemOID="IT.QS.QSORRES.ECS0327" Mandatory="No" OrderNumber="30">
               <def:WhereClauseRef WhereClauseOID="WC.QS.QSTESTCD.ECS0327"/>
            </ItemRef><ItemRef ItemOID="IT.QS.QSORRES.ECS0328" Mandatory="No" OrderNumber="31">
               <def:WhereClauseRef WhereClauseOID="WC.QS.QSTESTCD.ECS0328"/>
            </ItemRef><ItemRef ItemOID="IT.QS.QSORRES.ECS0329" Mandatory="No" OrderNumber="32">
               <def:WhereClauseRef WhereClauseOID="WC.QS.QSTESTCD.ECS0329"/>
            </ItemRef><ItemRef ItemOID="IT.QS.QSORRES.ECS0330" Mandatory="No" OrderNumber="33">
               <def:WhereClauseRef WhereClauseOID="WC.QS.QSTESTCD.ECS0330"/>
            </ItemRef><ItemRef ItemOID="IT.QS.QSORRES.ECS0331" Mandatory="No" OrderNumber="34">
               <def:WhereClauseRef WhereClauseOID="WC.QS.QSTESTCD.ECS0331"/>
            </ItemRef><ItemRef ItemOID="IT.QS.QSORRES.ECS0401" Mandatory="No" OrderNumber="35">
               <def:WhereClauseRef WhereClauseOID="WC.QS.QSTESTCD.ECS0401"/>
            </ItemRef><ItemRef ItemOID="IT.QS.QSORRES.ECS0402" Mandatory="No" OrderNumber="36">
               <def:WhereClauseRef WhereClauseOID="WC.QS.QSTESTCD.ECS0402"/>
            </ItemRef><ItemRef ItemOID="IT.QS.QSORRES.ECS0403" Mandatory="No" OrderNumber="37">
               <def:WhereClauseRef WhereClauseOID="WC.QS.QSTESTCD.ECS0403"/>
            </ItemRef><ItemRef ItemOID="IT.QS.QSORRES.ECS0404" Mandatory="No" OrderNumber="38">
               <def:WhereClauseRef WhereClauseOID="WC.QS.QSTESTCD.ECS0404"/>
            </ItemRef><ItemRef ItemOID="IT.QS.QSORRES.ECS0405" Mandatory="No" OrderNumber="39">
               <def:WhereClauseRef WhereClauseOID="WC.QS.QSTESTCD.ECS0405"/>
            </ItemRef><ItemRef ItemOID="IT.QS.QSORRES.ECS0406" Mandatory="No" OrderNumber="40">
               <def:WhereClauseRef WhereClauseOID="WC.QS.QSTESTCD.ECS0406"/>
            </ItemRef><ItemRef ItemOID="IT.QS.QSORRES.ECS0407" Mandatory="No" OrderNumber="41">
               <def:WhereClauseRef WhereClauseOID="WC.QS.QSTESTCD.ECS0407"/>
            </ItemRef><ItemRef ItemOID="IT.QS.QSORRES.ECS0408" Mandatory="No" OrderNumber="42">
               <def:WhereClauseRef WhereClauseOID="WC.QS.QSTESTCD.ECS0408"/>
            </ItemRef><ItemRef ItemOID="IT.QS.QSORRES.ECS0409" Mandatory="No" OrderNumber="43">
               <def:WhereClauseRef WhereClauseOID="WC.QS.QSTESTCD.ECS0409"/>
            </ItemRef><ItemRef ItemOID="IT.QS.QSORRES.ECS0410" Mandatory="No" OrderNumber="44">
               <def:WhereClauseRef WhereClauseOID="WC.QS.QSTESTCD.ECS0410"/>
            </ItemRef><ItemRef ItemOID="IT.QS.QSORRES.ECS0411" Mandatory="No" OrderNumber="45">
               <def:WhereClauseRef WhereClauseOID="WC.QS.QSTESTCD.ECS0411"/>
            </ItemRef><ItemRef ItemOID="IT.QS.QSORRES.ECS0412" Mandatory="No" OrderNumber="46">
               <def:WhereClauseRef WhereClauseOID="WC.QS.QSTESTCD.ECS0412"/>
            </ItemRef><ItemRef ItemOID="IT.QS.QSORRES.ECS0413" Mandatory="No" OrderNumber="47">
               <def:WhereClauseRef WhereClauseOID="WC.QS.QSTESTCD.ECS0413"/>
            </ItemRef><ItemRef ItemOID="IT.QS.QSORRES.ECS0414" Mandatory="No" OrderNumber="48">
               <def:WhereClauseRef WhereClauseOID="WC.QS.QSTESTCD.ECS0414"/>
            </ItemRef><ItemRef ItemOID="IT.QS.QSORRES.ECS0415" Mandatory="No" OrderNumber="49">
               <def:WhereClauseRef WhereClauseOID="WC.QS.QSTESTCD.ECS0415"/>
            </ItemRef><ItemRef ItemOID="IT.QS.QSORRES.ECS0416" Mandatory="No" OrderNumber="50">
               <def:WhereClauseRef WhereClauseOID="WC.QS.QSTESTCD.ECS0416"/>
            </ItemRef><ItemRef ItemOID="IT.QS.QSORRES.ECS0417" Mandatory="No" OrderNumber="51">
               <def:WhereClauseRef WhereClauseOID="WC.QS.QSTESTCD.ECS0417"/>
            </ItemRef><ItemRef ItemOID="IT.QS.QSORRES.ECS0418" Mandatory="No" OrderNumber="52">
               <def:WhereClauseRef WhereClauseOID="WC.QS.QSTESTCD.ECS0418"/>
            </ItemRef><ItemRef ItemOID="IT.QS.QSORRES.ECS0419" Mandatory="No" OrderNumber="53">
               <def:WhereClauseRef WhereClauseOID="WC.QS.QSTESTCD.ECS0419"/>
            </ItemRef><ItemRef ItemOID="IT.QS.QSORRES.ECS0420" Mandatory="No" OrderNumber="54">
               <def:WhereClauseRef WhereClauseOID="WC.QS.QSTESTCD.ECS0420"/>
            </ItemRef><ItemRef ItemOID="IT.QS.QSORRES.ECS0421" Mandatory="No" OrderNumber="55">
               <def:WhereClauseRef WhereClauseOID="WC.QS.QSTESTCD.ECS0421"/>
            </ItemRef><ItemRef ItemOID="IT.QS.QSORRES.ECS0422" Mandatory="No" OrderNumber="56">
               <def:WhereClauseRef WhereClauseOID="WC.QS.QSTESTCD.ECS0422"/>
            </ItemRef><ItemRef ItemOID="IT.QS.QSORRES.ECS0423" Mandatory="No" OrderNumber="57">
               <def:WhereClauseRef WhereClauseOID="WC.QS.QSTESTCD.ECS0423"/>
            </ItemRef><ItemRef ItemOID="IT.QS.QSORRES.ECS0424" Mandatory="No" OrderNumber="58">
               <def:WhereClauseRef WhereClauseOID="WC.QS.QSTESTCD.ECS0424"/>
            </ItemRef><ItemRef ItemOID="IT.QS.QSORRES.ECS0425" Mandatory="No" OrderNumber="59">
               <def:WhereClauseRef WhereClauseOID="WC.QS.QSTESTCD.ECS0425"/>
            </ItemRef><ItemRef ItemOID="IT.QS.QSORRES.ECS0426" Mandatory="No" OrderNumber="60">
               <def:WhereClauseRef WhereClauseOID="WC.QS.QSTESTCD.ECS0426"/>
            </ItemRef><ItemRef ItemOID="IT.QS.QSORRES.ECS0427" Mandatory="No" OrderNumber="61">
               <def:WhereClauseRef WhereClauseOID="WC.QS.QSTESTCD.ECS0427"/>
            </ItemRef><ItemRef ItemOID="IT.QS.QSORRES.ECS0428" Mandatory="No" OrderNumber="62">
               <def:WhereClauseRef WhereClauseOID="WC.QS.QSTESTCD.ECS0428"/>
            </ItemRef><ItemRef ItemOID="IT.QS.QSORRES.ECS0429" Mandatory="No" OrderNumber="63">
               <def:WhereClauseRef WhereClauseOID="WC.QS.QSTESTCD.ECS0429"/>
            </ItemRef><ItemRef ItemOID="IT.QS.QSORRES.HATQ21A" Mandatory="No" OrderNumber="64">
               <def:WhereClauseRef WhereClauseOID="WC.QS.QSTESTCD.HATQ21A"/>
            </ItemRef><ItemRef ItemOID="IT.QS.QSORRES.HATQ21B" Mandatory="No" OrderNumber="65">
               <def:WhereClauseRef WhereClauseOID="WC.QS.QSTESTCD.HATQ21B"/>
            </ItemRef><ItemRef ItemOID="IT.QS.QSORRES.HATQ21C" Mandatory="No" OrderNumber="66">
               <def:WhereClauseRef WhereClauseOID="WC.QS.QSTESTCD.HATQ21C"/>
            </ItemRef><ItemRef ItemOID="IT.QS.QSORRES.HATQ21D" Mandatory="No" OrderNumber="67">
               <def:WhereClauseRef WhereClauseOID="WC.QS.QSTESTCD.HATQ21D"/>
            </ItemRef><ItemRef ItemOID="IT.QS.QSORRES.HATQ22A" Mandatory="No" OrderNumber="68">
               <def:WhereClauseRef WhereClauseOID="WC.QS.QSTESTCD.HATQ22A"/>
            </ItemRef><ItemRef ItemOID="IT.QS.QSORRES.HATQ22B" Mandatory="No" OrderNumber="69">
               <def:WhereClauseRef WhereClauseOID="WC.QS.QSTESTCD.HATQ22B"/>
            </ItemRef><ItemRef ItemOID="IT.QS.QSORRES.HATQ22C" Mandatory="No" OrderNumber="70">
               <def:WhereClauseRef WhereClauseOID="WC.QS.QSTESTCD.HATQ22C"/>
            </ItemRef><ItemRef ItemOID="IT.QS.QSORRES.HATQ22D" Mandatory="No" OrderNumber="71">
               <def:WhereClauseRef WhereClauseOID="WC.QS.QSTESTCD.HATQ22D"/>
            </ItemRef><ItemRef ItemOID="IT.QS.QSORRES.HATQ22E" Mandatory="No" OrderNumber="72">
               <def:WhereClauseRef WhereClauseOID="WC.QS.QSTESTCD.HATQ22E"/>
            </ItemRef><ItemRef ItemOID="IT.QS.QSORRES.HATQ23A" Mandatory="No" OrderNumber="73">
               <def:WhereClauseRef WhereClauseOID="WC.QS.QSTESTCD.HATQ23A"/>
            </ItemRef><ItemRef ItemOID="IT.QS.QSORRES.HATQ23B" Mandatory="No" OrderNumber="74">
               <def:WhereClauseRef WhereClauseOID="WC.QS.QSTESTCD.HATQ23B"/>
            </ItemRef><ItemRef ItemOID="IT.QS.QSORRES.HATQ23C" Mandatory="No" OrderNumber="75">
               <def:WhereClauseRef WhereClauseOID="WC.QS.QSTESTCD.HATQ23C"/>
            </ItemRef><ItemRef ItemOID="IT.QS.QSORRES.HATQ23D" Mandatory="No" OrderNumber="76">
               <def:WhereClauseRef WhereClauseOID="WC.QS.QSTESTCD.HATQ23D"/>
            </ItemRef><ItemRef ItemOID="IT.QS.QSORRES.HATQ23E" Mandatory="No" OrderNumber="77">
               <def:WhereClauseRef WhereClauseOID="WC.QS.QSTESTCD.HATQ23E"/>
            </ItemRef><ItemRef ItemOID="IT.QS.QSORRES.HIVTS501" Mandatory="No" OrderNumber="78">
               <def:WhereClauseRef WhereClauseOID="WC.QS.QSTESTCD.HIVTS501"/>
            </ItemRef><ItemRef ItemOID="IT.QS.QSORRES.HIVTS502" Mandatory="No" OrderNumber="79">
               <def:WhereClauseRef WhereClauseOID="WC.QS.QSTESTCD.HIVTS502"/>
            </ItemRef><ItemRef ItemOID="IT.QS.QSORRES.HIVTS503" Mandatory="No" OrderNumber="80">
               <def:WhereClauseRef WhereClauseOID="WC.QS.QSTESTCD.HIVTS503"/>
            </ItemRef><ItemRef ItemOID="IT.QS.QSORRES.HIVTS504" Mandatory="No" OrderNumber="81">
               <def:WhereClauseRef WhereClauseOID="WC.QS.QSTESTCD.HIVTS504"/>
            </ItemRef><ItemRef ItemOID="IT.QS.QSORRES.HIVTS505" Mandatory="No" OrderNumber="82">
               <def:WhereClauseRef WhereClauseOID="WC.QS.QSTESTCD.HIVTS505"/>
            </ItemRef><ItemRef ItemOID="IT.QS.QSORRES.HIVTS506" Mandatory="No" OrderNumber="83">
               <def:WhereClauseRef WhereClauseOID="WC.QS.QSTESTCD.HIVTS506"/>
            </ItemRef><ItemRef ItemOID="IT.QS.QSORRES.HIVTS507" Mandatory="No" OrderNumber="84">
               <def:WhereClauseRef WhereClauseOID="WC.QS.QSTESTCD.HIVTS507"/>
            </ItemRef><ItemRef ItemOID="IT.QS.QSORRES.HIVTS508" Mandatory="No" OrderNumber="85">
               <def:WhereClauseRef WhereClauseOID="WC.QS.QSTESTCD.HIVTS508"/>
            </ItemRef><ItemRef ItemOID="IT.QS.QSORRES.HIVTS509" Mandatory="No" OrderNumber="86">
               <def:WhereClauseRef WhereClauseOID="WC.QS.QSTESTCD.HIVTS509"/>
            </ItemRef><ItemRef ItemOID="IT.QS.QSORRES.HIVTS510" Mandatory="No" OrderNumber="87">
               <def:WhereClauseRef WhereClauseOID="WC.QS.QSTESTCD.HIVTS510"/>
            </ItemRef><ItemRef ItemOID="IT.QS.QSORRES.HIVTS511" Mandatory="No" OrderNumber="88">
               <def:WhereClauseRef WhereClauseOID="WC.QS.QSTESTCD.HIVTS511"/>
            </ItemRef><ItemRef ItemOID="IT.QS.QSORRES.HIVTS512" Mandatory="No" OrderNumber="89">
               <def:WhereClauseRef WhereClauseOID="WC.QS.QSTESTCD.HIVTS512"/>
            </ItemRef><ItemRef ItemOID="IT.QS.QSORRES.HIVTS601" Mandatory="No" OrderNumber="90">
               <def:WhereClauseRef WhereClauseOID="WC.QS.QSTESTCD.HIVTS601"/>
            </ItemRef><ItemRef ItemOID="IT.QS.QSORRES.HIVTS602" Mandatory="No" OrderNumber="91">
               <def:WhereClauseRef WhereClauseOID="WC.QS.QSTESTCD.HIVTS602"/>
            </ItemRef><ItemRef ItemOID="IT.QS.QSORRES.HIVTS603" Mandatory="No" OrderNumber="92">
               <def:WhereClauseRef WhereClauseOID="WC.QS.QSTESTCD.HIVTS603"/>
            </ItemRef><ItemRef ItemOID="IT.QS.QSORRES.HIVTS604" Mandatory="No" OrderNumber="93">
               <def:WhereClauseRef WhereClauseOID="WC.QS.QSTESTCD.HIVTS604"/>
            </ItemRef><ItemRef ItemOID="IT.QS.QSORRES.HIVTS605" Mandatory="No" OrderNumber="94">
               <def:WhereClauseRef WhereClauseOID="WC.QS.QSTESTCD.HIVTS605"/>
            </ItemRef><ItemRef ItemOID="IT.QS.QSORRES.HIVTS606" Mandatory="No" OrderNumber="95">
               <def:WhereClauseRef WhereClauseOID="WC.QS.QSTESTCD.HIVTS606"/>
            </ItemRef><ItemRef ItemOID="IT.QS.QSORRES.HIVTS607" Mandatory="No" OrderNumber="96">
               <def:WhereClauseRef WhereClauseOID="WC.QS.QSTESTCD.HIVTS607"/>
            </ItemRef><ItemRef ItemOID="IT.QS.QSORRES.HIVTS608" Mandatory="No" OrderNumber="97">
               <def:WhereClauseRef WhereClauseOID="WC.QS.QSTESTCD.HIVTS608"/>
            </ItemRef><ItemRef ItemOID="IT.QS.QSORRES.HIVTS609" Mandatory="No" OrderNumber="98">
               <def:WhereClauseRef WhereClauseOID="WC.QS.QSTESTCD.HIVTS609"/>
            </ItemRef><ItemRef ItemOID="IT.QS.QSORRES.HIVTS610" Mandatory="No" OrderNumber="99">
               <def:WhereClauseRef WhereClauseOID="WC.QS.QSTESTCD.HIVTS610"/>
            </ItemRef><ItemRef ItemOID="IT.QS.QSORRES.HIVTS611" Mandatory="No" OrderNumber="100">
               <def:WhereClauseRef WhereClauseOID="WC.QS.QSTESTCD.HIVTS611"/>
            </ItemRef><ItemRef ItemOID="IT.QS.QSORRES.HIVTS612" Mandatory="No" OrderNumber="101">
               <def:WhereClauseRef WhereClauseOID="WC.QS.QSTESTCD.HIVTS612"/>
            </ItemRef><ItemRef ItemOID="IT.QS.QSORRES.PIN0101" Mandatory="No" OrderNumber="102">
               <def:WhereClauseRef WhereClauseOID="WC.QS.QSTESTCD.PIN0101"/>
            </ItemRef><ItemRef ItemOID="IT.QS.QSORRES.PIN0102" Mandatory="No" OrderNumber="103">
               <def:WhereClauseRef WhereClauseOID="WC.QS.QSTESTCD.PIN0102"/>
            </ItemRef><ItemRef ItemOID="IT.QS.QSORRES.PIN0103" Mandatory="No" OrderNumber="104">
               <def:WhereClauseRef WhereClauseOID="WC.QS.QSTESTCD.PIN0103"/>
            </ItemRef><ItemRef ItemOID="IT.QS.QSORRES.PIN0104" Mandatory="No" OrderNumber="105">
               <def:WhereClauseRef WhereClauseOID="WC.QS.QSTESTCD.PIN0104"/>
            </ItemRef><ItemRef ItemOID="IT.QS.QSORRES.PIN0105" Mandatory="No" OrderNumber="106">
               <def:WhereClauseRef WhereClauseOID="WC.QS.QSTESTCD.PIN0105"/>
            </ItemRef><ItemRef ItemOID="IT.QS.QSORRES.PIN0106" Mandatory="No" OrderNumber="107">
               <def:WhereClauseRef WhereClauseOID="WC.QS.QSTESTCD.PIN0106"/>
            </ItemRef><ItemRef ItemOID="IT.QS.QSORRES.PIN0107" Mandatory="No" OrderNumber="108">
               <def:WhereClauseRef WhereClauseOID="WC.QS.QSTESTCD.PIN0107"/>
            </ItemRef><ItemRef ItemOID="IT.QS.QSORRES.PIN0108" Mandatory="No" OrderNumber="109">
               <def:WhereClauseRef WhereClauseOID="WC.QS.QSTESTCD.PIN0108"/>
            </ItemRef><ItemRef ItemOID="IT.QS.QSORRES.PIN0109" Mandatory="No" OrderNumber="110">
               <def:WhereClauseRef WhereClauseOID="WC.QS.QSTESTCD.PIN0109"/>
            </ItemRef><ItemRef ItemOID="IT.QS.QSORRES.PIN0110" Mandatory="No" OrderNumber="111">
               <def:WhereClauseRef WhereClauseOID="WC.QS.QSTESTCD.PIN0110"/>
            </ItemRef><ItemRef ItemOID="IT.QS.QSORRES.PIN0111" Mandatory="No" OrderNumber="112">
               <def:WhereClauseRef WhereClauseOID="WC.QS.QSTESTCD.PIN0111"/>
            </ItemRef><ItemRef ItemOID="IT.QS.QSORRES.PIN0112" Mandatory="No" OrderNumber="113">
               <def:WhereClauseRef WhereClauseOID="WC.QS.QSTESTCD.PIN0112"/>
            </ItemRef><ItemRef ItemOID="IT.QS.QSORRES.PIN0113" Mandatory="No" OrderNumber="114">
               <def:WhereClauseRef WhereClauseOID="WC.QS.QSTESTCD.PIN0113"/>
            </ItemRef><ItemRef ItemOID="IT.QS.QSORRES.PIN0114" Mandatory="No" OrderNumber="115">
               <def:WhereClauseRef WhereClauseOID="WC.QS.QSTESTCD.PIN0114"/>
            </ItemRef><ItemRef ItemOID="IT.QS.QSORRES.PIN0115" Mandatory="No" OrderNumber="116">
               <def:WhereClauseRef WhereClauseOID="WC.QS.QSTESTCD.PIN0115"/>
            </ItemRef><ItemRef ItemOID="IT.QS.QSORRES.PIN0116" Mandatory="No" OrderNumber="117">
               <def:WhereClauseRef WhereClauseOID="WC.QS.QSTESTCD.PIN0116"/>
            </ItemRef><ItemRef ItemOID="IT.QS.QSORRES.PIN0117" Mandatory="No" OrderNumber="118">
               <def:WhereClauseRef WhereClauseOID="WC.QS.QSTESTCD.PIN0117"/>
            </ItemRef><ItemRef ItemOID="IT.QS.QSORRES.PIN0118" Mandatory="No" OrderNumber="119">
               <def:WhereClauseRef WhereClauseOID="WC.QS.QSTESTCD.PIN0118"/>
            </ItemRef><ItemRef ItemOID="IT.QS.QSORRES.PIN0119" Mandatory="No" OrderNumber="120">
               <def:WhereClauseRef WhereClauseOID="WC.QS.QSTESTCD.PIN0119"/>
            </ItemRef><ItemRef ItemOID="IT.QS.QSORRES.PIN0120" Mandatory="No" OrderNumber="121">
               <def:WhereClauseRef WhereClauseOID="WC.QS.QSTESTCD.PIN0120"/>
            </ItemRef><ItemRef ItemOID="IT.QS.QSORRES.PIN0121" Mandatory="No" OrderNumber="122">
               <def:WhereClauseRef WhereClauseOID="WC.QS.QSTESTCD.PIN0121"/>
            </ItemRef><ItemRef ItemOID="IT.QS.QSORRES.SF12101" Mandatory="No" OrderNumber="123">
               <def:WhereClauseRef WhereClauseOID="WC.QS.QSTESTCD.SF12101"/>
            </ItemRef><ItemRef ItemOID="IT.QS.QSORRES.SF12102A" Mandatory="No" OrderNumber="124">
               <def:WhereClauseRef WhereClauseOID="WC.QS.QSTESTCD.SF12102A"/>
            </ItemRef><ItemRef ItemOID="IT.QS.QSORRES.SF12102B" Mandatory="No" OrderNumber="125">
               <def:WhereClauseRef WhereClauseOID="WC.QS.QSTESTCD.SF12102B"/>
            </ItemRef><ItemRef ItemOID="IT.QS.QSORRES.SF12103A" Mandatory="No" OrderNumber="126">
               <def:WhereClauseRef WhereClauseOID="WC.QS.QSTESTCD.SF12103A"/>
            </ItemRef><ItemRef ItemOID="IT.QS.QSORRES.SF12103B" Mandatory="No" OrderNumber="127">
               <def:WhereClauseRef WhereClauseOID="WC.QS.QSTESTCD.SF12103B"/>
            </ItemRef><ItemRef ItemOID="IT.QS.QSORRES.SF12104A" Mandatory="No" OrderNumber="128">
               <def:WhereClauseRef WhereClauseOID="WC.QS.QSTESTCD.SF12104A"/>
            </ItemRef><ItemRef ItemOID="IT.QS.QSORRES.SF12104B" Mandatory="No" OrderNumber="129">
               <def:WhereClauseRef WhereClauseOID="WC.QS.QSTESTCD.SF12104B"/>
            </ItemRef><ItemRef ItemOID="IT.QS.QSORRES.SF12105" Mandatory="No" OrderNumber="130">
               <def:WhereClauseRef WhereClauseOID="WC.QS.QSTESTCD.SF12105"/>
            </ItemRef><ItemRef ItemOID="IT.QS.QSORRES.SF12106A" Mandatory="No" OrderNumber="131">
               <def:WhereClauseRef WhereClauseOID="WC.QS.QSTESTCD.SF12106A"/>
            </ItemRef><ItemRef ItemOID="IT.QS.QSORRES.SF12106B" Mandatory="No" OrderNumber="132">
               <def:WhereClauseRef WhereClauseOID="WC.QS.QSTESTCD.SF12106B"/>
            </ItemRef><ItemRef ItemOID="IT.QS.QSORRES.SF12106C" Mandatory="No" OrderNumber="133">
               <def:WhereClauseRef WhereClauseOID="WC.QS.QSTESTCD.SF12106C"/>
            </ItemRef><ItemRef ItemOID="IT.QS.QSORRES.SF12107" Mandatory="No" OrderNumber="134">
               <def:WhereClauseRef WhereClauseOID="WC.QS.QSTESTCD.SF12107"/>
            </ItemRef></def:ValueListDef><def:ValueListDef OID="VL.RP.RPORRES"><ItemRef ItemOID="IT.RP.RPORRES.PREGST" Mandatory="No" OrderNumber="1">
               <def:WhereClauseRef WhereClauseOID="WC.RP.RPTESTCD.PREGST"/>
            </ItemRef></def:ValueListDef><def:ValueListDef OID="VL.SC.SCORRES"><ItemRef ItemOID="IT.SC.SCORRES.GENDER" Mandatory="No" OrderNumber="1">
               <def:WhereClauseRef WhereClauseOID="WC.SC.SCTESTCD.GENDER"/>
            </ItemRef><ItemRef ItemOID="IT.SC.SCORRES.PKSUB" Mandatory="No" OrderNumber="2">
               <def:WhereClauseRef WhereClauseOID="WC.SC.SCTESTCD.PKSUB"/>
            </ItemRef></def:ValueListDef><def:ValueListDef OID="VL.SUPPAE.QVAL"><ItemRef ItemOID="IT.SUPPAE.QVAL.AESAFTRT" Mandatory="No" OrderNumber="1">
               <def:WhereClauseRef WhereClauseOID="WC.SUPPAE.QNAM.AESAFTRT"/>
            </ItemRef><ItemRef ItemOID="IT.SUPPAE.QVAL.AESPROT" Mandatory="No" OrderNumber="2">
               <def:WhereClauseRef WhereClauseOID="WC.SUPPAE.QNAM.AESPROT"/>
            </ItemRef><ItemRef ItemOID="IT.SUPPAE.QVAL.AESRECHA" Mandatory="No" OrderNumber="3">
               <def:WhereClauseRef WhereClauseOID="WC.SUPPAE.QNAM.AESRECHA"/>
            </ItemRef><ItemRef ItemOID="IT.SUPPAE.QVAL.AESREL" Mandatory="No" OrderNumber="4">
               <def:WhereClauseRef WhereClauseOID="WC.SUPPAE.QNAM.AESREL"/>
            </ItemRef><ItemRef ItemOID="IT.SUPPAE.QVAL.GRADED" Mandatory="No" OrderNumber="5">
               <def:WhereClauseRef WhereClauseOID="WC.SUPPAE.QNAM.GRADED"/>
            </ItemRef></def:ValueListDef><def:ValueListDef OID="VL.SUPPBE.QVAL"><ItemRef ItemOID="IT.SUPPBE.QVAL.DESTREAS" Mandatory="No" OrderNumber="1">
               <def:WhereClauseRef WhereClauseOID="WC.SUPPBE.QNAM.DESTREAS"/>
            </ItemRef><ItemRef ItemOID="IT.SUPPBE.QVAL.DESTRSSP" Mandatory="No" OrderNumber="2"><def:WhereClauseRef WhereClauseOID="WC.SUPPBE.QNAM.DESTRSSP"/></ItemRef></def:ValueListDef><def:ValueListDef OID="VL.SUPPC1.QVAL"><ItemRef ItemOID="IT.SUPPC1.QVAL.BOOSDG" Mandatory="No" OrderNumber="1">
               <def:WhereClauseRef WhereClauseOID="WC.SUPPC1.QNAM.BOOSDG"/>
            </ItemRef><ItemRef ItemOID="IT.SUPPC1.QVAL.BOOSDGID" Mandatory="No" OrderNumber="2">
               <def:WhereClauseRef WhereClauseOID="WC.SUPPC1.QNAM.BOOSDGID"/>
            </ItemRef><ItemRef ItemOID="IT.SUPPC1.QVAL.C1DECOD1" Mandatory="No" OrderNumber="3">
               <def:WhereClauseRef WhereClauseOID="WC.SUPPC1.QNAM.C1DECOD1"/>
            </ItemRef><ItemRef ItemOID="IT.SUPPC1.QVAL.C1DECOD2" Mandatory="No" OrderNumber="4">
               <def:WhereClauseRef WhereClauseOID="WC.SUPPC1.QNAM.C1DECOD2"/>
            </ItemRef><ItemRef ItemOID="IT.SUPPC1.QVAL.C1DECOD3" Mandatory="No" OrderNumber="5">
               <def:WhereClauseRef WhereClauseOID="WC.SUPPC1.QNAM.C1DECOD3"/>
            </ItemRef><ItemRef ItemOID="IT.SUPPC1.QVAL.C1DECOD4" Mandatory="No" OrderNumber="6">
               <def:WhereClauseRef WhereClauseOID="WC.SUPPC1.QNAM.C1DECOD4"/>
            </ItemRef><ItemRef ItemOID="IT.SUPPC1.QVAL.C1DECOD5" Mandatory="No" OrderNumber="7">
               <def:WhereClauseRef WhereClauseOID="WC.SUPPC1.QNAM.C1DECOD5"/>
            </ItemRef><ItemRef ItemOID="IT.SUPPC1.QVAL.C1DECOD6" Mandatory="No" OrderNumber="8">
               <def:WhereClauseRef WhereClauseOID="WC.SUPPC1.QNAM.C1DECOD6"/>
            </ItemRef><ItemRef ItemOID="IT.SUPPC1.QVAL.C1DECOD7" Mandatory="No" OrderNumber="9">
               <def:WhereClauseRef WhereClauseOID="WC.SUPPC1.QNAM.C1DECOD7"/>
            </ItemRef><ItemRef ItemOID="IT.SUPPC1.QVAL.CEREFID" Mandatory="No" OrderNumber="10">
               <def:WhereClauseRef WhereClauseOID="WC.SUPPC1.QNAM.CEREFID"/>
            </ItemRef><ItemRef ItemOID="IT.SUPPC1.QVAL.CHGCMDTC" Mandatory="No" OrderNumber="11">
               <def:WhereClauseRef WhereClauseOID="WC.SUPPC1.QNAM.CHGCMDTC"/>
            </ItemRef><ItemRef ItemOID="IT.SUPPC1.QVAL.CMINSTR" Mandatory="No" OrderNumber="12"><def:WhereClauseRef WhereClauseOID="WC.SUPPC1.QNAM.CMINSTR"/></ItemRef><ItemRef ItemOID="IT.SUPPC1.QVAL.GDRGCLCD" Mandatory="No" OrderNumber="13">
               <def:WhereClauseRef WhereClauseOID="WC.SUPPC1.QNAM.GDRGCLCD"/>
            </ItemRef><ItemRef ItemOID="IT.SUPPC1.QVAL.MEDTYP" Mandatory="No" OrderNumber="14">
               <def:WhereClauseRef WhereClauseOID="WC.SUPPC1.QNAM.MEDTYP"/>
            </ItemRef><ItemRef ItemOID="IT.SUPPC1.QVAL.PRSMEDEN" Mandatory="No" OrderNumber="15">
               <def:WhereClauseRef WhereClauseOID="WC.SUPPC1.QNAM.PRSMEDEN"/>
            </ItemRef><ItemRef ItemOID="IT.SUPPC1.QVAL.PRSMEDST" Mandatory="No" OrderNumber="16">
               <def:WhereClauseRef WhereClauseOID="WC.SUPPC1.QNAM.PRSMEDST"/>
            </ItemRef><ItemRef ItemOID="IT.SUPPC1.QVAL.RSMENDSP" Mandatory="No" OrderNumber="17">
               <def:WhereClauseRef WhereClauseOID="WC.SUPPC1.QNAM.RSMENDSP"/>
            </ItemRef></def:ValueListDef><def:ValueListDef OID="VL.SUPPCC.QVAL"><ItemRef ItemOID="IT.SUPPCC.QVAL.CCEVINTX" Mandatory="No" OrderNumber="1">
               <def:WhereClauseRef WhereClauseOID="WC.SUPPCC.QNAM.CCEVINTX"/>
            </ItemRef><ItemRef ItemOID="IT.SUPPCC.QVAL.CEREFID" Mandatory="No" OrderNumber="2">
               <def:WhereClauseRef WhereClauseOID="WC.SUPPCC.QNAM.CEREFID"/>
            </ItemRef></def:ValueListDef><def:ValueListDef OID="VL.SUPPCE.QVAL"><ItemRef ItemOID="IT.SUPPCE.QVAL.GRADED" Mandatory="No" OrderNumber="1"><def:WhereClauseRef WhereClauseOID="WC.SUPPCE.QNAM.GRADED"/></ItemRef><ItemRef ItemOID="IT.SUPPCE.QVAL.LERMX" Mandatory="No" OrderNumber="2">
               <def:WhereClauseRef WhereClauseOID="WC.SUPPCE.QNAM.LERMX"/>
            </ItemRef></def:ValueListDef><def:ValueListDef OID="VL.SUPPCM.QVAL"><ItemRef ItemOID="IT.SUPPCM.QVAL.BOOSDG" Mandatory="No" OrderNumber="1">
               <def:WhereClauseRef WhereClauseOID="WC.SUPPCM.QNAM.BOOSDG"/>
            </ItemRef><ItemRef ItemOID="IT.SUPPCM.QVAL.BOOSDGID" Mandatory="No" OrderNumber="2">
               <def:WhereClauseRef WhereClauseOID="WC.SUPPCM.QNAM.BOOSDGID"/>
            </ItemRef><ItemRef ItemOID="IT.SUPPCM.QVAL.CEREFID" Mandatory="No" OrderNumber="3">
               <def:WhereClauseRef WhereClauseOID="WC.SUPPCM.QNAM.CEREFID"/>
            </ItemRef><ItemRef ItemOID="IT.SUPPCM.QVAL.CHGCMDTC" Mandatory="No" OrderNumber="4">
               <def:WhereClauseRef WhereClauseOID="WC.SUPPCM.QNAM.CHGCMDTC"/>
            </ItemRef><ItemRef ItemOID="IT.SUPPCM.QVAL.CMCLAS1" Mandatory="No" OrderNumber="5">
               <def:WhereClauseRef WhereClauseOID="WC.SUPPCM.QNAM.CMCLAS1"/>
            </ItemRef><ItemRef ItemOID="IT.SUPPCM.QVAL.CMCLAS10" Mandatory="No" OrderNumber="6">
               <def:WhereClauseRef WhereClauseOID="WC.SUPPCM.QNAM.CMCLAS10"/>
            </ItemRef><ItemRef ItemOID="IT.SUPPCM.QVAL.CMCLAS11" Mandatory="No" OrderNumber="7">
               <def:WhereClauseRef WhereClauseOID="WC.SUPPCM.QNAM.CMCLAS11"/>
            </ItemRef><ItemRef ItemOID="IT.SUPPCM.QVAL.CMCLAS12" Mandatory="No" OrderNumber="8">
               <def:WhereClauseRef WhereClauseOID="WC.SUPPCM.QNAM.CMCLAS12"/>
            </ItemRef><ItemRef ItemOID="IT.SUPPCM.QVAL.CMCLAS13" Mandatory="No" OrderNumber="9">
               <def:WhereClauseRef WhereClauseOID="WC.SUPPCM.QNAM.CMCLAS13"/>
            </ItemRef><ItemRef ItemOID="IT.SUPPCM.QVAL.CMCLAS14" Mandatory="No" OrderNumber="10">
               <def:WhereClauseRef WhereClauseOID="WC.SUPPCM.QNAM.CMCLAS14"/>
            </ItemRef><ItemRef ItemOID="IT.SUPPCM.QVAL.CMCLAS15" Mandatory="No" OrderNumber="11">
               <def:WhereClauseRef WhereClauseOID="WC.SUPPCM.QNAM.CMCLAS15"/>
            </ItemRef><ItemRef ItemOID="IT.SUPPCM.QVAL.CMCLAS16" Mandatory="No" OrderNumber="12">
               <def:WhereClauseRef WhereClauseOID="WC.SUPPCM.QNAM.CMCLAS16"/>
            </ItemRef><ItemRef ItemOID="IT.SUPPCM.QVAL.CMCLAS17" Mandatory="No" OrderNumber="13">
               <def:WhereClauseRef WhereClauseOID="WC.SUPPCM.QNAM.CMCLAS17"/>
            </ItemRef><ItemRef ItemOID="IT.SUPPCM.QVAL.CMCLAS18" Mandatory="No" OrderNumber="14">
               <def:WhereClauseRef WhereClauseOID="WC.SUPPCM.QNAM.CMCLAS18"/>
            </ItemRef><ItemRef ItemOID="IT.SUPPCM.QVAL.CMCLAS19" Mandatory="No" OrderNumber="15">
               <def:WhereClauseRef WhereClauseOID="WC.SUPPCM.QNAM.CMCLAS19"/>
            </ItemRef><ItemRef ItemOID="IT.SUPPCM.QVAL.CMCLAS2" Mandatory="No" OrderNumber="16">
               <def:WhereClauseRef WhereClauseOID="WC.SUPPCM.QNAM.CMCLAS2"/>
            </ItemRef><ItemRef ItemOID="IT.SUPPCM.QVAL.CMCLAS20" Mandatory="No" OrderNumber="17">
               <def:WhereClauseRef WhereClauseOID="WC.SUPPCM.QNAM.CMCLAS20"/>
            </ItemRef><ItemRef ItemOID="IT.SUPPCM.QVAL.CMCLAS21" Mandatory="No" OrderNumber="18">
               <def:WhereClauseRef WhereClauseOID="WC.SUPPCM.QNAM.CMCLAS21"/>
            </ItemRef><ItemRef ItemOID="IT.SUPPCM.QVAL.CMCLAS22" Mandatory="No" OrderNumber="19">
               <def:WhereClauseRef WhereClauseOID="WC.SUPPCM.QNAM.CMCLAS22"/>
            </ItemRef><ItemRef ItemOID="IT.SUPPCM.QVAL.CMCLAS3" Mandatory="No" OrderNumber="20">
               <def:WhereClauseRef WhereClauseOID="WC.SUPPCM.QNAM.CMCLAS3"/>
            </ItemRef><ItemRef ItemOID="IT.SUPPCM.QVAL.CMCLAS4" Mandatory="No" OrderNumber="21">
               <def:WhereClauseRef WhereClauseOID="WC.SUPPCM.QNAM.CMCLAS4"/>
            </ItemRef><ItemRef ItemOID="IT.SUPPCM.QVAL.CMCLAS5" Mandatory="No" OrderNumber="22">
               <def:WhereClauseRef WhereClauseOID="WC.SUPPCM.QNAM.CMCLAS5"/>
            </ItemRef><ItemRef ItemOID="IT.SUPPCM.QVAL.CMCLAS6" Mandatory="No" OrderNumber="23">
               <def:WhereClauseRef WhereClauseOID="WC.SUPPCM.QNAM.CMCLAS6"/>
            </ItemRef><ItemRef ItemOID="IT.SUPPCM.QVAL.CMCLAS7" Mandatory="No" OrderNumber="24">
               <def:WhereClauseRef WhereClauseOID="WC.SUPPCM.QNAM.CMCLAS7"/>
            </ItemRef><ItemRef ItemOID="IT.SUPPCM.QVAL.CMCLAS8" Mandatory="No" OrderNumber="25">
               <def:WhereClauseRef WhereClauseOID="WC.SUPPCM.QNAM.CMCLAS8"/>
            </ItemRef><ItemRef ItemOID="IT.SUPPCM.QVAL.CMCLAS9" Mandatory="No" OrderNumber="26">
               <def:WhereClauseRef WhereClauseOID="WC.SUPPCM.QNAM.CMCLAS9"/>
            </ItemRef><ItemRef ItemOID="IT.SUPPCM.QVAL.CMCLCD1" Mandatory="No" OrderNumber="27">
               <def:WhereClauseRef WhereClauseOID="WC.SUPPCM.QNAM.CMCLCD1"/>
            </ItemRef><ItemRef ItemOID="IT.SUPPCM.QVAL.CMCLCD10" Mandatory="No" OrderNumber="28">
               <def:WhereClauseRef WhereClauseOID="WC.SUPPCM.QNAM.CMCLCD10"/>
            </ItemRef><ItemRef ItemOID="IT.SUPPCM.QVAL.CMCLCD11" Mandatory="No" OrderNumber="29">
               <def:WhereClauseRef WhereClauseOID="WC.SUPPCM.QNAM.CMCLCD11"/>
            </ItemRef><ItemRef ItemOID="IT.SUPPCM.QVAL.CMCLCD12" Mandatory="No" OrderNumber="30">
               <def:WhereClauseRef WhereClauseOID="WC.SUPPCM.QNAM.CMCLCD12"/>
            </ItemRef><ItemRef ItemOID="IT.SUPPCM.QVAL.CMCLCD13" Mandatory="No" OrderNumber="31">
               <def:WhereClauseRef WhereClauseOID="WC.SUPPCM.QNAM.CMCLCD13"/>
            </ItemRef><ItemRef ItemOID="IT.SUPPCM.QVAL.CMCLCD14" Mandatory="No" OrderNumber="32">
               <def:WhereClauseRef WhereClauseOID="WC.SUPPCM.QNAM.CMCLCD14"/>
            </ItemRef><ItemRef ItemOID="IT.SUPPCM.QVAL.CMCLCD15" Mandatory="No" OrderNumber="33">
               <def:WhereClauseRef WhereClauseOID="WC.SUPPCM.QNAM.CMCLCD15"/>
            </ItemRef><ItemRef ItemOID="IT.SUPPCM.QVAL.CMCLCD16" Mandatory="No" OrderNumber="34">
               <def:WhereClauseRef WhereClauseOID="WC.SUPPCM.QNAM.CMCLCD16"/>
            </ItemRef><ItemRef ItemOID="IT.SUPPCM.QVAL.CMCLCD17" Mandatory="No" OrderNumber="35">
               <def:WhereClauseRef WhereClauseOID="WC.SUPPCM.QNAM.CMCLCD17"/>
            </ItemRef><ItemRef ItemOID="IT.SUPPCM.QVAL.CMCLCD18" Mandatory="No" OrderNumber="36">
               <def:WhereClauseRef WhereClauseOID="WC.SUPPCM.QNAM.CMCLCD18"/>
            </ItemRef><ItemRef ItemOID="IT.SUPPCM.QVAL.CMCLCD19" Mandatory="No" OrderNumber="37">
               <def:WhereClauseRef WhereClauseOID="WC.SUPPCM.QNAM.CMCLCD19"/>
            </ItemRef><ItemRef ItemOID="IT.SUPPCM.QVAL.CMCLCD2" Mandatory="No" OrderNumber="38">
               <def:WhereClauseRef WhereClauseOID="WC.SUPPCM.QNAM.CMCLCD2"/>
            </ItemRef><ItemRef ItemOID="IT.SUPPCM.QVAL.CMCLCD20" Mandatory="No" OrderNumber="39">
               <def:WhereClauseRef WhereClauseOID="WC.SUPPCM.QNAM.CMCLCD20"/>
            </ItemRef><ItemRef ItemOID="IT.SUPPCM.QVAL.CMCLCD21" Mandatory="No" OrderNumber="40">
               <def:WhereClauseRef WhereClauseOID="WC.SUPPCM.QNAM.CMCLCD21"/>
            </ItemRef><ItemRef ItemOID="IT.SUPPCM.QVAL.CMCLCD22" Mandatory="No" OrderNumber="41">
               <def:WhereClauseRef WhereClauseOID="WC.SUPPCM.QNAM.CMCLCD22"/>
            </ItemRef><ItemRef ItemOID="IT.SUPPCM.QVAL.CMCLCD3" Mandatory="No" OrderNumber="42">
               <def:WhereClauseRef WhereClauseOID="WC.SUPPCM.QNAM.CMCLCD3"/>
            </ItemRef><ItemRef ItemOID="IT.SUPPCM.QVAL.CMCLCD4" Mandatory="No" OrderNumber="43">
               <def:WhereClauseRef WhereClauseOID="WC.SUPPCM.QNAM.CMCLCD4"/>
            </ItemRef><ItemRef ItemOID="IT.SUPPCM.QVAL.CMCLCD5" Mandatory="No" OrderNumber="44">
               <def:WhereClauseRef WhereClauseOID="WC.SUPPCM.QNAM.CMCLCD5"/>
            </ItemRef><ItemRef ItemOID="IT.SUPPCM.QVAL.CMCLCD6" Mandatory="No" OrderNumber="45">
               <def:WhereClauseRef WhereClauseOID="WC.SUPPCM.QNAM.CMCLCD6"/>
            </ItemRef><ItemRef ItemOID="IT.SUPPCM.QVAL.CMCLCD7" Mandatory="No" OrderNumber="46">
               <def:WhereClauseRef WhereClauseOID="WC.SUPPCM.QNAM.CMCLCD7"/>
            </ItemRef><ItemRef ItemOID="IT.SUPPCM.QVAL.CMCLCD8" Mandatory="No" OrderNumber="47">
               <def:WhereClauseRef WhereClauseOID="WC.SUPPCM.QNAM.CMCLCD8"/>
            </ItemRef><ItemRef ItemOID="IT.SUPPCM.QVAL.CMCLCD9" Mandatory="No" OrderNumber="48">
               <def:WhereClauseRef WhereClauseOID="WC.SUPPCM.QNAM.CMCLCD9"/>
            </ItemRef><ItemRef ItemOID="IT.SUPPCM.QVAL.CMDCOD1" Mandatory="No" OrderNumber="49">
               <def:WhereClauseRef WhereClauseOID="WC.SUPPCM.QNAM.CMDCOD1"/>
            </ItemRef><ItemRef ItemOID="IT.SUPPCM.QVAL.CMDCOD10" Mandatory="No" OrderNumber="50">
               <def:WhereClauseRef WhereClauseOID="WC.SUPPCM.QNAM.CMDCOD10"/>
            </ItemRef><ItemRef ItemOID="IT.SUPPCM.QVAL.CMDCOD11" Mandatory="No" OrderNumber="51">
               <def:WhereClauseRef WhereClauseOID="WC.SUPPCM.QNAM.CMDCOD11"/>
            </ItemRef><ItemRef ItemOID="IT.SUPPCM.QVAL.CMDCOD12" Mandatory="No" OrderNumber="52">
               <def:WhereClauseRef WhereClauseOID="WC.SUPPCM.QNAM.CMDCOD12"/>
            </ItemRef><ItemRef ItemOID="IT.SUPPCM.QVAL.CMDCOD13" Mandatory="No" OrderNumber="53">
               <def:WhereClauseRef WhereClauseOID="WC.SUPPCM.QNAM.CMDCOD13"/>
            </ItemRef><ItemRef ItemOID="IT.SUPPCM.QVAL.CMDCOD14" Mandatory="No" OrderNumber="54">
               <def:WhereClauseRef WhereClauseOID="WC.SUPPCM.QNAM.CMDCOD14"/>
            </ItemRef><ItemRef ItemOID="IT.SUPPCM.QVAL.CMDCOD15" Mandatory="No" OrderNumber="55">
               <def:WhereClauseRef WhereClauseOID="WC.SUPPCM.QNAM.CMDCOD15"/>
            </ItemRef><ItemRef ItemOID="IT.SUPPCM.QVAL.CMDCOD16" Mandatory="No" OrderNumber="56">
               <def:WhereClauseRef WhereClauseOID="WC.SUPPCM.QNAM.CMDCOD16"/>
            </ItemRef><ItemRef ItemOID="IT.SUPPCM.QVAL.CMDCOD17" Mandatory="No" OrderNumber="57">
               <def:WhereClauseRef WhereClauseOID="WC.SUPPCM.QNAM.CMDCOD17"/>
            </ItemRef><ItemRef ItemOID="IT.SUPPCM.QVAL.CMDCOD18" Mandatory="No" OrderNumber="58">
               <def:WhereClauseRef WhereClauseOID="WC.SUPPCM.QNAM.CMDCOD18"/>
            </ItemRef><ItemRef ItemOID="IT.SUPPCM.QVAL.CMDCOD19" Mandatory="No" OrderNumber="59">
               <def:WhereClauseRef WhereClauseOID="WC.SUPPCM.QNAM.CMDCOD19"/>
            </ItemRef><ItemRef ItemOID="IT.SUPPCM.QVAL.CMDCOD2" Mandatory="No" OrderNumber="60">
               <def:WhereClauseRef WhereClauseOID="WC.SUPPCM.QNAM.CMDCOD2"/>
            </ItemRef><ItemRef ItemOID="IT.SUPPCM.QVAL.CMDCOD20" Mandatory="No" OrderNumber="61">
               <def:WhereClauseRef WhereClauseOID="WC.SUPPCM.QNAM.CMDCOD20"/>
            </ItemRef><ItemRef ItemOID="IT.SUPPCM.QVAL.CMDCOD21" Mandatory="No" OrderNumber="62">
               <def:WhereClauseRef WhereClauseOID="WC.SUPPCM.QNAM.CMDCOD21"/>
            </ItemRef><ItemRef ItemOID="IT.SUPPCM.QVAL.CMDCOD22" Mandatory="No" OrderNumber="63">
               <def:WhereClauseRef WhereClauseOID="WC.SUPPCM.QNAM.CMDCOD22"/>
            </ItemRef><ItemRef ItemOID="IT.SUPPCM.QVAL.CMDCOD3" Mandatory="No" OrderNumber="64">
               <def:WhereClauseRef WhereClauseOID="WC.SUPPCM.QNAM.CMDCOD3"/>
            </ItemRef><ItemRef ItemOID="IT.SUPPCM.QVAL.CMDCOD4" Mandatory="No" OrderNumber="65">
               <def:WhereClauseRef WhereClauseOID="WC.SUPPCM.QNAM.CMDCOD4"/>
            </ItemRef><ItemRef ItemOID="IT.SUPPCM.QVAL.CMDCOD5" Mandatory="No" OrderNumber="66">
               <def:WhereClauseRef WhereClauseOID="WC.SUPPCM.QNAM.CMDCOD5"/>
            </ItemRef><ItemRef ItemOID="IT.SUPPCM.QVAL.CMDCOD6" Mandatory="No" OrderNumber="67">
               <def:WhereClauseRef WhereClauseOID="WC.SUPPCM.QNAM.CMDCOD6"/>
            </ItemRef><ItemRef ItemOID="IT.SUPPCM.QVAL.CMDCOD7" Mandatory="No" OrderNumber="68">
               <def:WhereClauseRef WhereClauseOID="WC.SUPPCM.QNAM.CMDCOD7"/>
            </ItemRef><ItemRef ItemOID="IT.SUPPCM.QVAL.CMDCOD8" Mandatory="No" OrderNumber="69">
               <def:WhereClauseRef WhereClauseOID="WC.SUPPCM.QNAM.CMDCOD8"/>
            </ItemRef><ItemRef ItemOID="IT.SUPPCM.QVAL.CMDCOD9" Mandatory="No" OrderNumber="70">
               <def:WhereClauseRef WhereClauseOID="WC.SUPPCM.QNAM.CMDCOD9"/>
            </ItemRef><ItemRef ItemOID="IT.SUPPCM.QVAL.CMINSTR" Mandatory="No" OrderNumber="71"><def:WhereClauseRef WhereClauseOID="WC.SUPPCM.QNAM.CMINSTR"/></ItemRef><ItemRef ItemOID="IT.SUPPCM.QVAL.MEDTYP" Mandatory="No" OrderNumber="72">
               <def:WhereClauseRef WhereClauseOID="WC.SUPPCM.QNAM.MEDTYP"/>
            </ItemRef><ItemRef ItemOID="IT.SUPPCM.QVAL.PRSMEDEN" Mandatory="No" OrderNumber="73">
               <def:WhereClauseRef WhereClauseOID="WC.SUPPCM.QNAM.PRSMEDEN"/>
            </ItemRef><ItemRef ItemOID="IT.SUPPCM.QVAL.PRSMEDST" Mandatory="No" OrderNumber="74">
               <def:WhereClauseRef WhereClauseOID="WC.SUPPCM.QNAM.PRSMEDST"/>
            </ItemRef><ItemRef ItemOID="IT.SUPPCM.QVAL.RSMENDSP" Mandatory="No" OrderNumber="75">
               <def:WhereClauseRef WhereClauseOID="WC.SUPPCM.QNAM.RSMENDSP"/>
            </ItemRef><ItemRef ItemOID="IT.SUPPCM.QVAL.WDRGCLCD" Mandatory="No" OrderNumber="76">
               <def:WhereClauseRef WhereClauseOID="WC.SUPPCM.QNAM.WDRGCLCD"/>
            </ItemRef></def:ValueListDef><def:ValueListDef OID="VL.SUPPCV.QVAL"><ItemRef ItemOID="IT.SUPPCV.QVAL.CEREFID" Mandatory="No" OrderNumber="1">
               <def:WhereClauseRef WhereClauseOID="WC.SUPPCV.QNAM.CEREFID"/>
            </ItemRef><ItemRef ItemOID="IT.SUPPCV.QVAL.LOCSP" Mandatory="No" OrderNumber="2"><def:WhereClauseRef WhereClauseOID="WC.SUPPCV.QNAM.LOCSP"/></ItemRef></def:ValueListDef><def:ValueListDef OID="VL.SUPPDE.QVAL"><ItemRef ItemOID="IT.SUPPDE.QVAL.SPDEVID" Mandatory="No" OrderNumber="1">
               <def:WhereClauseRef WhereClauseOID="WC.SUPPDE.QNAM.SPDEVID"/>
            </ItemRef></def:ValueListDef><def:ValueListDef OID="VL.SUPPDM.QVAL"><ItemRef ItemOID="IT.SUPPDM.QVAL.RACE1" Mandatory="No" OrderNumber="1">
               <def:WhereClauseRef WhereClauseOID="WC.SUPPDM.QNAM.RACE1"/>
            </ItemRef><ItemRef ItemOID="IT.SUPPDM.QVAL.RACE2" Mandatory="No" OrderNumber="2">
               <def:WhereClauseRef WhereClauseOID="WC.SUPPDM.QNAM.RACE2"/>
            </ItemRef><ItemRef ItemOID="IT.SUPPDM.QVAL.RACEOR" Mandatory="No" OrderNumber="3">
               <def:WhereClauseRef WhereClauseOID="WC.SUPPDM.QNAM.RACEOR"/>
            </ItemRef><ItemRef ItemOID="IT.SUPPDM.QVAL.RACEOR1" Mandatory="No" OrderNumber="4">
               <def:WhereClauseRef WhereClauseOID="WC.SUPPDM.QNAM.RACEOR1"/>
            </ItemRef><ItemRef ItemOID="IT.SUPPDM.QVAL.RACEOR2" Mandatory="No" OrderNumber="5">
               <def:WhereClauseRef WhereClauseOID="WC.SUPPDM.QNAM.RACEOR2"/>
            </ItemRef><ItemRef ItemOID="IT.SUPPDM.QVAL.REGIMEN" Mandatory="No" OrderNumber="6">
               <def:WhereClauseRef WhereClauseOID="WC.SUPPDM.QNAM.REGIMEN"/>
            </ItemRef><ItemRef ItemOID="IT.SUPPDM.QVAL.REGIMEN1" Mandatory="No" OrderNumber="7">
               <def:WhereClauseRef WhereClauseOID="WC.SUPPDM.QNAM.REGIMEN1"/>
            </ItemRef><ItemRef ItemOID="IT.SUPPDM.QVAL.SUBJID1" Mandatory="No" OrderNumber="8">
               <def:WhereClauseRef WhereClauseOID="WC.SUPPDM.QNAM.SUBJID1"/>
            </ItemRef><ItemRef ItemOID="IT.SUPPDM.QVAL.SUBJID2" Mandatory="No" OrderNumber="9">
               <def:WhereClauseRef WhereClauseOID="WC.SUPPDM.QNAM.SUBJID2"/>
            </ItemRef></def:ValueListDef><def:ValueListDef OID="VL.SUPPDO.QVAL"><ItemRef ItemOID="IT.SUPPDO.QVAL.SPDEVID" Mandatory="No" OrderNumber="1">
               <def:WhereClauseRef WhereClauseOID="WC.SUPPDO.QNAM.SPDEVID"/>
            </ItemRef></def:ValueListDef><def:ValueListDef OID="VL.SUPPDS.QVAL"><ItemRef ItemOID="IT.SUPPDS.QVAL.DSDECOD1" Mandatory="No" OrderNumber="1">
               <def:WhereClauseRef WhereClauseOID="WC.SUPPDS.QNAM.DSDECOD1"/>
            </ItemRef><ItemRef ItemOID="IT.SUPPDS.QVAL.DSDECOD2" Mandatory="No" OrderNumber="2">
               <def:WhereClauseRef WhereClauseOID="WC.SUPPDS.QNAM.DSDECOD2"/>
            </ItemRef><ItemRef ItemOID="IT.SUPPDS.QVAL.DSTERM1" Mandatory="No" OrderNumber="3">
               <def:WhereClauseRef WhereClauseOID="WC.SUPPDS.QNAM.DSTERM1"/>
            </ItemRef><ItemRef ItemOID="IT.SUPPDS.QVAL.DSTERM2" Mandatory="No" OrderNumber="4">
               <def:WhereClauseRef WhereClauseOID="WC.SUPPDS.QNAM.DSTERM2"/>
            </ItemRef><ItemRef ItemOID="IT.SUPPDS.QVAL.DSTERM3" Mandatory="No" OrderNumber="5">
               <def:WhereClauseRef WhereClauseOID="WC.SUPPDS.QNAM.DSTERM3"/>
            </ItemRef><ItemRef ItemOID="IT.SUPPDS.QVAL.DSTERM4" Mandatory="No" OrderNumber="6">
               <def:WhereClauseRef WhereClauseOID="WC.SUPPDS.QNAM.DSTERM4"/>
            </ItemRef><ItemRef ItemOID="IT.SUPPDS.QVAL.FUCERTLM" Mandatory="No" OrderNumber="7">
               <def:WhereClauseRef WhereClauseOID="WC.SUPPDS.QNAM.FUCERTLM"/>
            </ItemRef><ItemRef ItemOID="IT.SUPPDS.QVAL.FUPCONT3" Mandatory="No" OrderNumber="8">
               <def:WhereClauseRef WhereClauseOID="WC.SUPPDS.QNAM.FUPCONT3"/>
            </ItemRef><ItemRef ItemOID="IT.SUPPDS.QVAL.ICSPV" Mandatory="No" OrderNumber="9">
               <def:WhereClauseRef WhereClauseOID="WC.SUPPDS.QNAM.ICSPV"/>
            </ItemRef><ItemRef ItemOID="IT.SUPPDS.QVAL.ICSTV" Mandatory="No" OrderNumber="10">
               <def:WhereClauseRef WhereClauseOID="WC.SUPPDS.QNAM.ICSTV"/>
            </ItemRef><ItemRef ItemOID="IT.SUPPDS.QVAL.PROTVER" Mandatory="No" OrderNumber="11">
               <def:WhereClauseRef WhereClauseOID="WC.SUPPDS.QNAM.PROTVER"/>
            </ItemRef><ItemRef ItemOID="IT.SUPPDS.QVAL.PRVERDTC" Mandatory="No" OrderNumber="12">
               <def:WhereClauseRef WhereClauseOID="WC.SUPPDS.QNAM.PRVERDTC"/>
            </ItemRef><ItemRef ItemOID="IT.SUPPDS.QVAL.RANDNUM" Mandatory="No" OrderNumber="13">
               <def:WhereClauseRef WhereClauseOID="WC.SUPPDS.QNAM.RANDNUM"/>
            </ItemRef><ItemRef ItemOID="IT.SUPPDS.QVAL.RELTXDIS" Mandatory="No" OrderNumber="14">
               <def:WhereClauseRef WhereClauseOID="WC.SUPPDS.QNAM.RELTXDIS"/>
            </ItemRef><ItemRef ItemOID="IT.SUPPDS.QVAL.STUDYTRT" Mandatory="No" OrderNumber="15">
               <def:WhereClauseRef WhereClauseOID="WC.SUPPDS.QNAM.STUDYTRT"/>
            </ItemRef></def:ValueListDef><def:ValueListDef OID="VL.SUPPDV.QVAL"><ItemRef ItemOID="IT.SUPPDV.QVAL.DVIMPFL" Mandatory="No" OrderNumber="1">
               <def:WhereClauseRef WhereClauseOID="WC.SUPPDV.QNAM.DVIMPFL"/>
            </ItemRef><ItemRef ItemOID="IT.SUPPDV.QVAL.EXCLPPFL" Mandatory="No" OrderNumber="2">
               <def:WhereClauseRef WhereClauseOID="WC.SUPPDV.QNAM.EXCLPPFL"/>
            </ItemRef><ItemRef ItemOID="IT.SUPPDV.QVAL.POPAEXCL" Mandatory="No" OrderNumber="3">
               <def:WhereClauseRef WhereClauseOID="WC.SUPPDV.QNAM.POPAEXCL"/>
            </ItemRef></def:ValueListDef><def:ValueListDef OID="VL.SUPPEG.QVAL"><ItemRef ItemOID="IT.SUPPEG.QVAL.CEREFID" Mandatory="No" OrderNumber="1">
               <def:WhereClauseRef WhereClauseOID="WC.SUPPEG.QNAM.CEREFID"/>
            </ItemRef><ItemRef ItemOID="IT.SUPPEG.QVAL.CLSIGNIF" Mandatory="No" OrderNumber="2">
               <def:WhereClauseRef WhereClauseOID="WC.SUPPEG.QNAM.CLSIGNIF"/>
            </ItemRef><ItemRef ItemOID="IT.SUPPEG.QVAL.MQTCCALC" Mandatory="No" OrderNumber="3">
               <def:WhereClauseRef WhereClauseOID="WC.SUPPEG.QNAM.MQTCCALC"/>
            </ItemRef></def:ValueListDef><def:ValueListDef OID="VL.SUPPEX.QVAL"><ItemRef ItemOID="IT.SUPPEX.QVAL.DOSEINT" Mandatory="No" OrderNumber="1">
               <def:WhereClauseRef WhereClauseOID="WC.SUPPEX.QNAM.DOSEINT"/>
            </ItemRef><ItemRef ItemOID="IT.SUPPEX.QVAL.DOSTKNML" Mandatory="No" OrderNumber="2">
               <def:WhereClauseRef WhereClauseOID="WC.SUPPEX.QNAM.DOSTKNML"/>
            </ItemRef><ItemRef ItemOID="IT.SUPPEX.QVAL.DOSVOM4H" Mandatory="No" OrderNumber="3">
               <def:WhereClauseRef WhereClauseOID="WC.SUPPEX.QNAM.DOSVOM4H"/>
            </ItemRef><ItemRef ItemOID="IT.SUPPEX.QVAL.INTPRS" Mandatory="No" OrderNumber="4">
               <def:WhereClauseRef WhereClauseOID="WC.SUPPEX.QNAM.INTPRS"/>
            </ItemRef><ItemRef ItemOID="IT.SUPPEX.QVAL.INTPRSSP" Mandatory="No" OrderNumber="5">
               <def:WhereClauseRef WhereClauseOID="WC.SUPPEX.QNAM.INTPRSSP"/>
            </ItemRef><ItemRef ItemOID="IT.SUPPEX.QVAL.NDLGAUGE" Mandatory="No" OrderNumber="6">
               <def:WhereClauseRef WhereClauseOID="WC.SUPPEX.QNAM.NDLGAUGE"/>
            </ItemRef><ItemRef ItemOID="IT.SUPPEX.QVAL.NDLLGTH" Mandatory="No" OrderNumber="7">
               <def:WhereClauseRef WhereClauseOID="WC.SUPPEX.QNAM.NDLLGTH"/>
            </ItemRef><ItemRef ItemOID="IT.SUPPEX.QVAL.NDLLGTHU" Mandatory="No" OrderNumber="8">
               <def:WhereClauseRef WhereClauseOID="WC.SUPPEX.QNAM.NDLLGTHU"/>
            </ItemRef><ItemRef ItemOID="IT.SUPPEX.QVAL.TVOLINJ" Mandatory="No" OrderNumber="9">
               <def:WhereClauseRef WhereClauseOID="WC.SUPPEX.QNAM.TVOLINJ"/>
            </ItemRef><ItemRef ItemOID="IT.SUPPEX.QVAL.TVOLINJU" Mandatory="No" OrderNumber="10">
               <def:WhereClauseRef WhereClauseOID="WC.SUPPEX.QNAM.TVOLINJU"/>
            </ItemRef></def:ValueListDef><def:ValueListDef OID="VL.SUPPFAAE.QVAL"><ItemRef ItemOID="IT.SUPPFAAE.QVAL.PSRAETX2" Mandatory="No" OrderNumber="1"><def:WhereClauseRef WhereClauseOID="WC.SUPPFAAE.QNAM.PSRAETX2"/></ItemRef><ItemRef ItemOID="IT.SUPPFAAE.QVAL.PSRAETX3" Mandatory="No" OrderNumber="2"><def:WhereClauseRef WhereClauseOID="WC.SUPPFAAE.QNAM.PSRAETX3"/></ItemRef></def:ValueListDef><def:ValueListDef OID="VL.SUPPFACE.QVAL"><ItemRef ItemOID="IT.SUPPFACE.QVAL.CEREFID" Mandatory="No" OrderNumber="1"><def:WhereClauseRef WhereClauseOID="WC.SUPPFACE.QNAM.CEREFID"/></ItemRef><ItemRef ItemOID="IT.SUPPFACE.QVAL.FAEVINTX" Mandatory="No" OrderNumber="2"><def:WhereClauseRef WhereClauseOID="WC.SUPPFACE.QNAM.FAEVINTX"/></ItemRef><ItemRef ItemOID="IT.SUPPFACE.QVAL.QSLANG" Mandatory="No" OrderNumber="3"><def:WhereClauseRef WhereClauseOID="WC.SUPPFACE.QNAM.QSLANG"/></ItemRef></def:ValueListDef><def:ValueListDef OID="VL.SUPPFAEX.QVAL"><ItemRef ItemOID="IT.SUPPFAEX.QVAL.QSLANG" Mandatory="No" OrderNumber="1"><def:WhereClauseRef WhereClauseOID="WC.SUPPFAEX.QNAM.QSLANG"/></ItemRef></def:ValueListDef><def:ValueListDef OID="VL.SUPPHO.QVAL"><ItemRef ItemOID="IT.SUPPHO.QVAL.CEREFID" Mandatory="No" OrderNumber="1">
               <def:WhereClauseRef WhereClauseOID="WC.SUPPHO.QNAM.CEREFID"/>
            </ItemRef></def:ValueListDef><def:ValueListDef OID="VL.SUPPLB.QVAL"><ItemRef ItemOID="IT.SUPPLB.QVAL.ASSAYV" Mandatory="No" OrderNumber="1">
               <def:WhereClauseRef WhereClauseOID="WC.SUPPLB.QNAM.ASSAYV"/>
            </ItemRef><ItemRef ItemOID="IT.SUPPLB.QVAL.CEREFID" Mandatory="No" OrderNumber="2"><def:WhereClauseRef WhereClauseOID="WC.SUPPLB.QNAM.CEREFID"/></ItemRef><ItemRef ItemOID="IT.SUPPLB.QVAL.GRADED" Mandatory="No" OrderNumber="3">
               <def:WhereClauseRef WhereClauseOID="WC.SUPPLB.QNAM.GRADED"/>
            </ItemRef><ItemRef ItemOID="IT.SUPPLB.QVAL.LBANMETH" Mandatory="No" OrderNumber="4">
               <def:WhereClauseRef WhereClauseOID="WC.SUPPLB.QNAM.LBANMETH"/>
            </ItemRef><ItemRef ItemOID="IT.SUPPLB.QVAL.LLOD" Mandatory="No" OrderNumber="5">
               <def:WhereClauseRef WhereClauseOID="WC.SUPPLB.QNAM.LLOD"/>
            </ItemRef><ItemRef ItemOID="IT.SUPPLB.QVAL.SISTRESN" Mandatory="No" MethodOID="MT.SUPPLB.SISTRESN" OrderNumber="6">
               <def:WhereClauseRef WhereClauseOID="WC.SUPPLB.QNAM.SISTRESN"/>
            </ItemRef><ItemRef ItemOID="IT.SUPPLB.QVAL.SISTRESU" Mandatory="No" OrderNumber="7">
               <def:WhereClauseRef WhereClauseOID="WC.SUPPLB.QNAM.SISTRESU"/>
            </ItemRef><ItemRef ItemOID="IT.SUPPLB.QVAL.ULOD" Mandatory="No" OrderNumber="8">
               <def:WhereClauseRef WhereClauseOID="WC.SUPPLB.QNAM.ULOD"/>
            </ItemRef><ItemRef ItemOID="IT.SUPPLB.QVAL.ULOQ" Mandatory="No" OrderNumber="9">
               <def:WhereClauseRef WhereClauseOID="WC.SUPPLB.QNAM.ULOQ"/>
            </ItemRef></def:ValueListDef><def:ValueListDef OID="VL.SUPPMH.QVAL"><ItemRef ItemOID="IT.SUPPMH.QVAL.CEREFID" Mandatory="No" OrderNumber="1">
               <def:WhereClauseRef WhereClauseOID="WC.SUPPMH.QNAM.CEREFID"/>
            </ItemRef></def:ValueListDef><def:ValueListDef OID="VL.SUPPPC.QVAL"><ItemRef ItemOID="IT.SUPPPC.QVAL.PKSMPTYP" Mandatory="No" OrderNumber="1">
               <def:WhereClauseRef WhereClauseOID="WC.SUPPPC.QNAM.PKSMPTYP"/>
            </ItemRef></def:ValueListDef><def:ValueListDef OID="VL.SUPPPF.QVAL"><ItemRef ItemOID="IT.SUPPPF.QVAL.BATCHNUM" Mandatory="No" OrderNumber="1">
               <def:WhereClauseRef WhereClauseOID="WC.SUPPPF.QNAM.BATCHNUM"/>
            </ItemRef><ItemRef ItemOID="IT.SUPPPF.QVAL.CSPECTYP" Mandatory="No" OrderNumber="2">
               <def:WhereClauseRef WhereClauseOID="WC.SUPPPF.QNAM.CSPECTYP"/>
            </ItemRef><ItemRef ItemOID="IT.SUPPPF.QVAL.DRUGNAM" Mandatory="No" OrderNumber="3">
               <def:WhereClauseRef WhereClauseOID="WC.SUPPPF.QNAM.DRUGNAM"/>
            </ItemRef><ItemRef ItemOID="IT.SUPPPF.QVAL.PFGENRI" Mandatory="No" OrderNumber="4">
               <def:WhereClauseRef WhereClauseOID="WC.SUPPPF.QNAM.PFGENRI"/>
            </ItemRef><ItemRef ItemOID="IT.SUPPPF.QVAL.PFGENTRG" Mandatory="No" OrderNumber="5">
               <def:WhereClauseRef WhereClauseOID="WC.SUPPPF.QNAM.PFGENTRG"/>
            </ItemRef><ItemRef ItemOID="IT.SUPPPF.QVAL.PFGENTYP" Mandatory="No" OrderNumber="6">
               <def:WhereClauseRef WhereClauseOID="WC.SUPPPF.QNAM.PFGENTYP"/>
            </ItemRef><ItemRef ItemOID="IT.SUPPPF.QVAL.PFNSPCES" Mandatory="No" OrderNumber="7">
               <def:WhereClauseRef WhereClauseOID="WC.SUPPPF.QNAM.PFNSPCES"/>
            </ItemRef><ItemRef ItemOID="IT.SUPPPF.QVAL.PFNSTRN" Mandatory="No" OrderNumber="8">
               <def:WhereClauseRef WhereClauseOID="WC.SUPPPF.QNAM.PFNSTRN"/>
            </ItemRef><ItemRef ItemOID="IT.SUPPPF.QVAL.RFSEQNM" Mandatory="No" OrderNumber="9">
               <def:WhereClauseRef WhereClauseOID="WC.SUPPPF.QNAM.RFSEQNM"/>
            </ItemRef><ItemRef ItemOID="IT.SUPPPF.QVAL.TSTDESC" Mandatory="No" OrderNumber="10">
               <def:WhereClauseRef WhereClauseOID="WC.SUPPPF.QNAM.TSTDESC"/>
            </ItemRef><ItemRef ItemOID="IT.SUPPPF.QVAL.TSTDTC" Mandatory="No" OrderNumber="11">
               <def:WhereClauseRef WhereClauseOID="WC.SUPPPF.QNAM.TSTDTC"/>
            </ItemRef></def:ValueListDef><def:ValueListDef OID="VL.SUPPPR.QVAL"><ItemRef ItemOID="IT.SUPPPR.QVAL.CEREFID" Mandatory="No" OrderNumber="1">
               <def:WhereClauseRef WhereClauseOID="WC.SUPPPR.QNAM.CEREFID"/>
            </ItemRef><ItemRef ItemOID="IT.SUPPPR.QVAL.CIRCSURG" Mandatory="No" OrderNumber="2"><def:WhereClauseRef WhereClauseOID="WC.SUPPPR.QNAM.CIRCSURG"/></ItemRef><ItemRef ItemOID="IT.SUPPPR.QVAL.VASACC" Mandatory="No" OrderNumber="3"><def:WhereClauseRef WhereClauseOID="WC.SUPPPR.QNAM.VASACC"/></ItemRef></def:ValueListDef><def:ValueListDef OID="VL.SUPPQS.QVAL"><ItemRef ItemOID="IT.SUPPQS.QVAL.CALLSTAT" Mandatory="No" OrderNumber="1">
               <def:WhereClauseRef WhereClauseOID="WC.SUPPQS.QNAM.CALLSTAT"/>
            </ItemRef><ItemRef ItemOID="IT.SUPPQS.QVAL.QSEVINTX" Mandatory="No" OrderNumber="2">
               <def:WhereClauseRef WhereClauseOID="WC.SUPPQS.QNAM.QSEVINTX"/>
            </ItemRef><ItemRef ItemOID="IT.SUPPQS.QVAL.QSLANG" Mandatory="No" OrderNumber="3">
               <def:WhereClauseRef WhereClauseOID="WC.SUPPQS.QNAM.QSLANG"/>
            </ItemRef></def:ValueListDef><def:ValueListDef OID="VL.SUPPSU.QVAL"><ItemRef ItemOID="IT.SUPPSU.QVAL.SUEVINTX" Mandatory="No" OrderNumber="1">
               <def:WhereClauseRef WhereClauseOID="WC.SUPPSU.QNAM.SUEVINTX"/>
            </ItemRef><ItemRef ItemOID="IT.SUPPSU.QVAL.SUNCF" Mandatory="No" OrderNumber="2">
               <def:WhereClauseRef WhereClauseOID="WC.SUPPSU.QNAM.SUNCF"/>
            </ItemRef></def:ValueListDef><def:ValueListDef OID="VL.SUPPVS.QVAL"><ItemRef ItemOID="IT.SUPPVS.QVAL.CEREFID" Mandatory="No" OrderNumber="1">
               <def:WhereClauseRef WhereClauseOID="WC.SUPPVS.QNAM.CEREFID"/>
            </ItemRef></def:ValueListDef><def:ValueListDef OID="VL.SUPPY5.QVAL"><ItemRef ItemOID="IT.SUPPY5.QVAL.SREL" Mandatory="No" OrderNumber="1">
               <def:WhereClauseRef WhereClauseOID="WC.SUPPY5.QNAM.SREL"/>
            </ItemRef></def:ValueListDef><def:ValueListDef OID="VL.SUPPY8.QVAL"><ItemRef ItemOID="IT.SUPPY8.QVAL.CEREFID" Mandatory="No" OrderNumber="1">
               <def:WhereClauseRef WhereClauseOID="WC.SUPPY8.QNAM.CEREFID"/>
            </ItemRef></def:ValueListDef><def:ValueListDef OID="VL.SUPPZ1.QVAL"><ItemRef ItemOID="IT.SUPPZ1.QVAL.APID" Mandatory="No" OrderNumber="1">
               <def:WhereClauseRef WhereClauseOID="WC.SUPPZ1.QNAM.APID"/>
            </ItemRef><ItemRef ItemOID="IT.SUPPZ1.QVAL.RSUBJID" Mandatory="No" OrderNumber="2">
               <def:WhereClauseRef WhereClauseOID="WC.SUPPZ1.QNAM.RSUBJID"/>
            </ItemRef><ItemRef ItemOID="IT.SUPPZ1.QVAL.SREL" Mandatory="No" OrderNumber="3">
               <def:WhereClauseRef WhereClauseOID="WC.SUPPZ1.QNAM.SREL"/>
            </ItemRef></def:ValueListDef><def:ValueListDef OID="VL.TS.TSVAL"><ItemRef ItemOID="IT.TS.TSVAL.ACTSUB" Mandatory="No" OrderNumber="1">
               <def:WhereClauseRef WhereClauseOID="WC.TS.TSPARMCD.ACTSUB"/>
            </ItemRef><ItemRef ItemOID="IT.TS.TSVAL.ADAPT" Mandatory="No" OrderNumber="2">
               <def:WhereClauseRef WhereClauseOID="WC.TS.TSPARMCD.ADAPT"/>
            </ItemRef><ItemRef ItemOID="IT.TS.TSVAL.ADDON" Mandatory="No" OrderNumber="3">
               <def:WhereClauseRef WhereClauseOID="WC.TS.TSPARMCD.ADDON"/>
            </ItemRef><ItemRef ItemOID="IT.TS.TSVAL.AGEMAX" Mandatory="No" OrderNumber="4">
               <def:WhereClauseRef WhereClauseOID="WC.TS.TSPARMCD.AGEMAX"/>
            </ItemRef><ItemRef ItemOID="IT.TS.TSVAL.AGEMIN" Mandatory="No" OrderNumber="5">
               <def:WhereClauseRef WhereClauseOID="WC.TS.TSPARMCD.AGEMIN"/>
            </ItemRef><ItemRef ItemOID="IT.TS.TSVAL.COMPTRT" Mandatory="No" OrderNumber="6">
               <def:WhereClauseRef WhereClauseOID="WC.TS.TSPARMCD.COMPTRT"/>
            </ItemRef><ItemRef ItemOID="IT.TS.TSVAL.CRMDUR" Mandatory="No" OrderNumber="7">
               <def:WhereClauseRef WhereClauseOID="WC.TS.TSPARMCD.CRMDUR"/>
            </ItemRef><ItemRef ItemOID="IT.TS.TSVAL.CURTRT" Mandatory="No" OrderNumber="8">
               <def:WhereClauseRef WhereClauseOID="WC.TS.TSPARMCD.CURTRT"/>
            </ItemRef><ItemRef ItemOID="IT.TS.TSVAL.DCUTDESC" Mandatory="No" OrderNumber="9">
               <def:WhereClauseRef WhereClauseOID="WC.TS.TSPARMCD.DCUTDESC"/>
            </ItemRef><ItemRef ItemOID="IT.TS.TSVAL.DCUTDTC" Mandatory="No" OrderNumber="10">
               <def:WhereClauseRef WhereClauseOID="WC.TS.TSPARMCD.DCUTDTC"/>
            </ItemRef><ItemRef ItemOID="IT.TS.TSVAL.DOSE" Mandatory="No" OrderNumber="11">
               <def:WhereClauseRef WhereClauseOID="WC.TS.TSPARMCD.DOSE"/>
            </ItemRef><ItemRef ItemOID="IT.TS.TSVAL.DOSFRQ" Mandatory="No" OrderNumber="12">
               <def:WhereClauseRef WhereClauseOID="WC.TS.TSPARMCD.DOSFRQ"/>
            </ItemRef><ItemRef ItemOID="IT.TS.TSVAL.DOSU" Mandatory="No" OrderNumber="13">
               <def:WhereClauseRef WhereClauseOID="WC.TS.TSPARMCD.DOSU"/>
            </ItemRef><ItemRef ItemOID="IT.TS.TSVAL.FCNTRY" Mandatory="No" OrderNumber="14">
               <def:WhereClauseRef WhereClauseOID="WC.TS.TSPARMCD.FCNTRY"/>
            </ItemRef><ItemRef ItemOID="IT.TS.TSVAL.HLTSUBJI" Mandatory="No" OrderNumber="15">
               <def:WhereClauseRef WhereClauseOID="WC.TS.TSPARMCD.HLTSUBJI"/>
            </ItemRef><ItemRef ItemOID="IT.TS.TSVAL.INDIC" Mandatory="No" OrderNumber="16">
               <def:WhereClauseRef WhereClauseOID="WC.TS.TSPARMCD.INDIC"/>
            </ItemRef><ItemRef ItemOID="IT.TS.TSVAL.INTMODEL" Mandatory="No" OrderNumber="17">
               <def:WhereClauseRef WhereClauseOID="WC.TS.TSPARMCD.INTMODEL"/>
            </ItemRef><ItemRef ItemOID="IT.TS.TSVAL.INTTYPE" Mandatory="No" OrderNumber="18">
               <def:WhereClauseRef WhereClauseOID="WC.TS.TSPARMCD.INTTYPE"/>
            </ItemRef><ItemRef ItemOID="IT.TS.TSVAL.LENGTH" Mandatory="No" OrderNumber="19">
               <def:WhereClauseRef WhereClauseOID="WC.TS.TSPARMCD.LENGTH"/>
            </ItemRef><ItemRef ItemOID="IT.TS.TSVAL.NARMS" Mandatory="No" OrderNumber="20">
               <def:WhereClauseRef WhereClauseOID="WC.TS.TSPARMCD.NARMS"/>
            </ItemRef><ItemRef ItemOID="IT.TS.TSVAL.OBJPRIM" Mandatory="No" OrderNumber="21">
               <def:WhereClauseRef WhereClauseOID="WC.TS.TSPARMCD.OBJPRIM"/>
            </ItemRef><ItemRef ItemOID="IT.TS.TSVAL.OBJSEC" Mandatory="No" OrderNumber="22">
               <def:WhereClauseRef WhereClauseOID="WC.TS.TSPARMCD.OBJSEC"/>
            </ItemRef><ItemRef ItemOID="IT.TS.TSVAL.OUTMSEXP" Mandatory="No" OrderNumber="23">
               <def:WhereClauseRef WhereClauseOID="WC.TS.TSPARMCD.OUTMSEXP"/>
            </ItemRef><ItemRef ItemOID="IT.TS.TSVAL.OUTMSPRI" Mandatory="No" OrderNumber="24">
               <def:WhereClauseRef WhereClauseOID="WC.TS.TSPARMCD.OUTMSPRI"/>
            </ItemRef><ItemRef ItemOID="IT.TS.TSVAL.OUTMSSEC" Mandatory="No" OrderNumber="25">
               <def:WhereClauseRef WhereClauseOID="WC.TS.TSPARMCD.OUTMSSEC"/>
            </ItemRef><ItemRef ItemOID="IT.TS.TSVAL.PCLAS" Mandatory="No" OrderNumber="26">
               <def:WhereClauseRef WhereClauseOID="WC.TS.TSPARMCD.PCLAS"/>
            </ItemRef><ItemRef ItemOID="IT.TS.TSVAL.PLANSUB" Mandatory="No" OrderNumber="27">
               <def:WhereClauseRef WhereClauseOID="WC.TS.TSPARMCD.PLANSUB"/>
            </ItemRef><ItemRef ItemOID="IT.TS.TSVAL.RANDOM" Mandatory="No" OrderNumber="28">
               <def:WhereClauseRef WhereClauseOID="WC.TS.TSPARMCD.RANDOM"/>
            </ItemRef><ItemRef ItemOID="IT.TS.TSVAL.RANDQT" Mandatory="No" OrderNumber="29">
               <def:WhereClauseRef WhereClauseOID="WC.TS.TSPARMCD.RANDQT"/>
            </ItemRef><ItemRef ItemOID="IT.TS.TSVAL.REGID" Mandatory="No" OrderNumber="30">
               <def:WhereClauseRef WhereClauseOID="WC.TS.TSPARMCD.REGID"/>
            </ItemRef><ItemRef ItemOID="IT.TS.TSVAL.ROUTE" Mandatory="No" OrderNumber="31">
               <def:WhereClauseRef WhereClauseOID="WC.TS.TSPARMCD.ROUTE"/>
            </ItemRef><ItemRef ItemOID="IT.TS.TSVAL.SDMDUR" Mandatory="No" OrderNumber="32">
               <def:WhereClauseRef WhereClauseOID="WC.TS.TSPARMCD.SDMDUR"/>
            </ItemRef><ItemRef ItemOID="IT.TS.TSVAL.SENDTC" Mandatory="No" OrderNumber="33">
               <def:WhereClauseRef WhereClauseOID="WC.TS.TSPARMCD.SENDTC"/>
            </ItemRef><ItemRef ItemOID="IT.TS.TSVAL.SEXPOP" Mandatory="No" OrderNumber="34">
               <def:WhereClauseRef WhereClauseOID="WC.TS.TSPARMCD.SEXPOP"/>
            </ItemRef><ItemRef ItemOID="IT.TS.TSVAL.SPONSOR" Mandatory="No" OrderNumber="35">
               <def:WhereClauseRef WhereClauseOID="WC.TS.TSPARMCD.SPONSOR"/>
            </ItemRef><ItemRef ItemOID="IT.TS.TSVAL.SSTDTC" Mandatory="No" OrderNumber="36">
               <def:WhereClauseRef WhereClauseOID="WC.TS.TSPARMCD.SSTDTC"/>
            </ItemRef><ItemRef ItemOID="IT.TS.TSVAL.STOPRULE" Mandatory="No" OrderNumber="37">
               <def:WhereClauseRef WhereClauseOID="WC.TS.TSPARMCD.STOPRULE"/>
            </ItemRef><ItemRef ItemOID="IT.TS.TSVAL.STRATFCT" Mandatory="No" OrderNumber="38">
               <def:WhereClauseRef WhereClauseOID="WC.TS.TSPARMCD.STRATFCT"/>
            </ItemRef><ItemRef ItemOID="IT.TS.TSVAL.STYPE" Mandatory="No" OrderNumber="39">
               <def:WhereClauseRef WhereClauseOID="WC.TS.TSPARMCD.STYPE"/>
            </ItemRef><ItemRef ItemOID="IT.TS.TSVAL.TBLIND" Mandatory="No" OrderNumber="40">
               <def:WhereClauseRef WhereClauseOID="WC.TS.TSPARMCD.TBLIND"/>
            </ItemRef><ItemRef ItemOID="IT.TS.TSVAL.TCNTRL" Mandatory="No" OrderNumber="41">
               <def:WhereClauseRef WhereClauseOID="WC.TS.TSPARMCD.TCNTRL"/>
            </ItemRef><ItemRef ItemOID="IT.TS.TSVAL.TDIGRP" Mandatory="No" OrderNumber="42">
               <def:WhereClauseRef WhereClauseOID="WC.TS.TSPARMCD.TDIGRP"/>
            </ItemRef><ItemRef ItemOID="IT.TS.TSVAL.TINDTP" Mandatory="No" OrderNumber="43">
               <def:WhereClauseRef WhereClauseOID="WC.TS.TSPARMCD.TINDTP"/>
            </ItemRef><ItemRef ItemOID="IT.TS.TSVAL.TITLE" Mandatory="No" OrderNumber="44">
               <def:WhereClauseRef WhereClauseOID="WC.TS.TSPARMCD.TITLE"/>
            </ItemRef><ItemRef ItemOID="IT.TS.TSVAL.TPHASE" Mandatory="No" OrderNumber="45">
               <def:WhereClauseRef WhereClauseOID="WC.TS.TSPARMCD.TPHASE"/>
            </ItemRef><ItemRef ItemOID="IT.TS.TSVAL.TRT" Mandatory="No" OrderNumber="46">
               <def:WhereClauseRef WhereClauseOID="WC.TS.TSPARMCD.TRT"/>
            </ItemRef><ItemRef ItemOID="IT.TS.TSVAL.TTYPE" Mandatory="No" OrderNumber="47">
               <def:WhereClauseRef WhereClauseOID="WC.TS.TSPARMCD.TTYPE"/>
            </ItemRef></def:ValueListDef><def:ValueListDef OID="VL.VS.VSORRES"><ItemRef ItemOID="IT.VS.VSORRES.BMI" Mandatory="No" OrderNumber="1">
               <def:WhereClauseRef WhereClauseOID="WC.VS.VSTESTCD.BMI"/>
            </ItemRef><ItemRef ItemOID="IT.VS.VSORRES.DIABP" Mandatory="No" OrderNumber="2">
               <def:WhereClauseRef WhereClauseOID="WC.VS.VSTESTCD.DIABP"/>
            </ItemRef><ItemRef ItemOID="IT.VS.VSORRES.HEIGHT" Mandatory="No" OrderNumber="3">
               <def:WhereClauseRef WhereClauseOID="WC.VS.VSTESTCD.HEIGHT"/>
            </ItemRef><ItemRef ItemOID="IT.VS.VSORRES.PULSE" Mandatory="No" OrderNumber="4">
               <def:WhereClauseRef WhereClauseOID="WC.VS.VSTESTCD.PULSE"/>
            </ItemRef><ItemRef ItemOID="IT.VS.VSORRES.SYSBP" Mandatory="No" OrderNumber="5">
               <def:WhereClauseRef WhereClauseOID="WC.VS.VSTESTCD.SYSBP"/>
            </ItemRef><ItemRef ItemOID="IT.VS.VSORRES.TEMP" Mandatory="No" OrderNumber="6">
               <def:WhereClauseRef WhereClauseOID="WC.VS.VSTESTCD.TEMP"/>
            </ItemRef><ItemRef ItemOID="IT.VS.VSORRES.WEIGHT" Mandatory="No" OrderNumber="7">
               <def:WhereClauseRef WhereClauseOID="WC.VS.VSTESTCD.WEIGHT"/>
            </ItemRef></def:ValueListDef><def:ValueListDef OID="VL.Y8.Y8ORRES"><ItemRef ItemOID="IT.Y8.Y8ORRES.AFBFLUT" Mandatory="No" OrderNumber="1"><def:WhereClauseRef WhereClauseOID="WC.Y8.YSTESTCD.AFBFLUT"/></ItemRef><ItemRef ItemOID="IT.Y8.Y8ORRES.ATHRPROC" Mandatory="No" OrderNumber="2"><def:WhereClauseRef WhereClauseOID="WC.Y8.YSTESTCD.ATHRPROC"/></ItemRef><ItemRef ItemOID="IT.Y8.Y8ORRES.CACPULEM" Mandatory="No" OrderNumber="3"><def:WhereClauseRef WhereClauseOID="WC.Y8.YSTESTCD.CACPULEM"/></ItemRef><ItemRef ItemOID="IT.Y8.Y8ORRES.CHPULDIS" Mandatory="No" OrderNumber="4"><def:WhereClauseRef WhereClauseOID="WC.Y8.YSTESTCD.CHPULDIS"/></ItemRef><ItemRef ItemOID="IT.Y8.Y8ORRES.HISPULEM" Mandatory="No" OrderNumber="5"><def:WhereClauseRef WhereClauseOID="WC.Y8.YSTESTCD.HISPULEM"/></ItemRef><ItemRef ItemOID="IT.Y8.Y8ORRES.HIVRF" Mandatory="No" OrderNumber="6">
               <def:WhereClauseRef WhereClauseOID="WC.Y8.Y8TESTCD.HIVRF"/>
            </ItemRef><ItemRef ItemOID="IT.Y8.Y8ORRES.HIVRFKNW" Mandatory="No" OrderNumber="7">
               <def:WhereClauseRef WhereClauseOID="WC.Y8.Y8TESTCD.HIVRFKNW"/>
            </ItemRef><ItemRef ItemOID="IT.Y8.Y8ORRES.HSTDVTPE" Mandatory="No" OrderNumber="8"><def:WhereClauseRef WhereClauseOID="WC.Y8.YSTESTCD.HSTDVTPE"/></ItemRef><ItemRef ItemOID="IT.Y8.Y8ORRES.HYOERCOA" Mandatory="No" OrderNumber="9"><def:WhereClauseRef WhereClauseOID="WC.Y8.YSTESTCD.HYPERCOA"/></ItemRef><ItemRef ItemOID="IT.Y8.Y8ORRES.HYPSTATE" Mandatory="No" OrderNumber="10"><def:WhereClauseRef WhereClauseOID="WC.Y8.YSTESTCD.HYPSTATE"/></ItemRef><ItemRef ItemOID="IT.Y8.Y8ORRES.MALIGN" Mandatory="No" OrderNumber="11"><def:WhereClauseRef WhereClauseOID="WC.Y8.YSTESTCD.MALIGN"/></ItemRef><ItemRef ItemOID="IT.Y8.Y8ORRES.MEDCVAL" Mandatory="No" OrderNumber="12">
               <def:WhereClauseRef WhereClauseOID="WC.Y8.Y8TESTCD.MEDCVAL"/>
            </ItemRef><ItemRef ItemOID="IT.Y8.Y8ORRES.MEDHSPUL" Mandatory="No" OrderNumber="13"><def:WhereClauseRef WhereClauseOID="WC.Y8.YSTESTCD.MEDHSPUL"/></ItemRef><ItemRef ItemOID="IT.Y8.Y8ORRES.MITSTEN" Mandatory="No" OrderNumber="14"><def:WhereClauseRef WhereClauseOID="WC.Y8.YSTESTCD.MITSTEN"/></ItemRef><ItemRef ItemOID="IT.Y8.Y8ORRES.OTRISKFC" Mandatory="No" OrderNumber="15"><def:WhereClauseRef WhereClauseOID="WC.Y8.YSTESTCD.OTRISKFC"/></ItemRef><ItemRef ItemOID="IT.Y8.Y8ORRES.POSTOPER" Mandatory="No" OrderNumber="16"><def:WhereClauseRef WhereClauseOID="WC.Y8.YSTESTCD.POSTOPER"/></ItemRef><ItemRef ItemOID="IT.Y8.Y8ORRES.PROIMMOB" Mandatory="No" OrderNumber="17"><def:WhereClauseRef WhereClauseOID="WC.Y8.YSTESTCD.PROIMMOB"/></ItemRef><ItemRef ItemOID="IT.Y8.Y8ORRES.SEVTRAUM" Mandatory="No" OrderNumber="18"><def:WhereClauseRef WhereClauseOID="WC.Y8.YSTESTCD.SEVTRAUM"/></ItemRef></def:ValueListDef><def:ValueListDef OID="VL.Z1.Z1ORRES"><ItemRef ItemOID="IT.Z1.Z1ORRES.PREGST" Mandatory="No" OrderNumber="1">
               <def:WhereClauseRef WhereClauseOID="WC.Z1.Z1TESTCD.PREGST"/>
            </ItemRef></def:ValueListDef><def:WhereClauseDef OID="WC.CC.CCTESTCD.CHIVC301">
            <RangeCheck Comparator="EQ" SoftHard="Soft" def:ItemOID="IT.CC.CCTESTCD">
               <CheckValue>CHIVC301</CheckValue>
            </RangeCheck>
         </def:WhereClauseDef><def:WhereClauseDef OID="WC.CC.CCTESTCD.NYHA0101">
            <RangeCheck Comparator="EQ" SoftHard="Soft" def:ItemOID="IT.CC.CCTESTCD">
               <CheckValue>NYHA0101</CheckValue>
            </RangeCheck>
         </def:WhereClauseDef><def:WhereClauseDef OID="WC.CO.RDOMAIN.EG"><RangeCheck Comparator="EQ" SoftHard="Soft" def:ItemOID="IT.CO.IDVAR"><CheckValue>EGSEQ</CheckValue></RangeCheck><RangeCheck Comparator="EQ" SoftHard="Soft" def:ItemOID="IT.RDOMAIN"><CheckValue>EG</CheckValue></RangeCheck></def:WhereClauseDef><def:WhereClauseDef OID="WC.CO.RDOMAIN.FAREFID"><RangeCheck Comparator="EQ" SoftHard="Soft" def:ItemOID="IT.CO.IDVAR"><CheckValue>FAREFID</CheckValue></RangeCheck><RangeCheck Comparator="EQ" SoftHard="Soft" def:ItemOID="IT.RDOMAIN"><CheckValue>FA</CheckValue></RangeCheck></def:WhereClauseDef><def:WhereClauseDef OID="WC.CO.RDOMAIN.FASPID"><RangeCheck Comparator="EQ" SoftHard="Soft" def:ItemOID="IT.RDOMAIN"><CheckValue>FA</CheckValue></RangeCheck><RangeCheck Comparator="EQ" SoftHard="Soft" def:ItemOID="IT.CO.IDVAR"><CheckValue>FASPID</CheckValue></RangeCheck></def:WhereClauseDef><def:WhereClauseDef OID="WC.CO.RDOMAIN.LB"><RangeCheck Comparator="EQ" SoftHard="Soft" def:ItemOID="IT.RDOMAIN"><CheckValue>LB</CheckValue></RangeCheck><RangeCheck Comparator="EQ" SoftHard="Soft" def:ItemOID="IT.CO.IDVAR"><CheckValue>LBSEQ</CheckValue></RangeCheck></def:WhereClauseDef><def:WhereClauseDef OID="WC.CO.RDOMAIN.PC"><RangeCheck Comparator="EQ" SoftHard="Soft" def:ItemOID="IT.RDOMAIN"><CheckValue>PC</CheckValue></RangeCheck><RangeCheck Comparator="EQ" SoftHard="Soft" def:ItemOID="IT.CO.IDVAR"><CheckValue>PCSEQ</CheckValue></RangeCheck></def:WhereClauseDef><def:WhereClauseDef OID="WC.CO.RDOMAIN.PF"><RangeCheck Comparator="EQ" SoftHard="Soft" def:ItemOID="IT.RDOMAIN"><CheckValue>PF</CheckValue></RangeCheck><RangeCheck Comparator="EQ" SoftHard="Soft" def:ItemOID="IT.CO.IDVAR"><CheckValue>PFSEQ</CheckValue></RangeCheck></def:WhereClauseDef><def:WhereClauseDef OID="WC.CV.CVTESTCD.APEARVAL">
            <RangeCheck Comparator="EQ" SoftHard="Soft" def:ItemOID="IT.CV.CVTESTCD">
               <CheckValue>APEARVAL</CheckValue>
            </RangeCheck>
         </def:WhereClauseDef><def:WhereClauseDef OID="WC.CV.CVTESTCD.CVALL">
            <RangeCheck Comparator="EQ" SoftHard="Soft" def:ItemOID="IT.CV.CVTESTCD">
               <CheckValue>CVALL</CheckValue>
            </RangeCheck>
         </def:WhereClauseDef><def:WhereClauseDef OID="WC.CV.CVTESTCD.CVCATH"><RangeCheck Comparator="EQ" SoftHard="Soft" def:ItemOID="IT.CV.CVTESTCD"><CheckValue>CVCATH</CheckValue></RangeCheck></def:WhereClauseDef><def:WhereClauseDef OID="WC.CV.CVTESTCD.CVLREGTS"><RangeCheck Comparator="EQ" SoftHard="Soft" def:ItemOID="IT.CV.CVTESTCD"><CheckValue>CVLREGTS</CheckValue></RangeCheck></def:WhereClauseDef><def:WhereClauseDef OID="WC.CV.CVTESTCD.CVLSTNS"><RangeCheck Comparator="EQ" SoftHard="Soft" def:ItemOID="IT.CV.CVTESTCD"><CheckValue>CVLSTNS</CheckValue></RangeCheck></def:WhereClauseDef><def:WhereClauseDef OID="WC.CV.CVTESTCD.CVRGIND">
            <RangeCheck Comparator="EQ" SoftHard="Soft" def:ItemOID="IT.CV.CVTESTCD">
               <CheckValue>CVRGIND</CheckValue>
            </RangeCheck>
         </def:WhereClauseDef><def:WhereClauseDef OID="WC.CV.CVTESTCD.CXRPULHY"><RangeCheck Comparator="EQ" SoftHard="Soft" def:ItemOID="IT.CV.CVTESTCD"><CheckValue>CXRPULHY</CheckValue></RangeCheck></def:WhereClauseDef><def:WhereClauseDef OID="WC.CV.CVTESTCD.DIAIRNP"><RangeCheck Comparator="EQ" SoftHard="Soft" def:ItemOID="IT.CV.CVTESTCD"><CheckValue>DIAIRNP</CheckValue></RangeCheck></def:WhereClauseDef><def:WhereClauseDef OID="WC.CV.CVTESTCD.DVTCONS"><RangeCheck Comparator="EQ" SoftHard="Soft" def:ItemOID="IT.CV.CVTESTCD"><CheckValue>DVTCONS</CheckValue></RangeCheck></def:WhereClauseDef><def:WhereClauseDef OID="WC.CV.CVTESTCD.ECHPULHY"><RangeCheck Comparator="EQ" SoftHard="Soft" def:ItemOID="IT.CV.CVTESTCD"><CheckValue>ECHPULHY</CheckValue></RangeCheck></def:WhereClauseDef><def:WhereClauseDef OID="WC.CV.CVTESTCD.EJFRCASS">
            <RangeCheck Comparator="EQ" SoftHard="Soft" def:ItemOID="IT.CV.CVTESTCD">
               <CheckValue>EJFRCASS</CheckValue>
            </RangeCheck>
         </def:WhereClauseDef><def:WhereClauseDef OID="WC.CV.CVTESTCD.EJFRCPER"><RangeCheck Comparator="EQ" SoftHard="Soft" def:ItemOID="IT.CV.CVTESTCD"><CheckValue>EJFRCPER</CheckValue></RangeCheck></def:WhereClauseDef><def:WhereClauseDef OID="WC.CV.CVTESTCD.EJRACEV"><RangeCheck Comparator="EQ" SoftHard="Soft" def:ItemOID="IT.CV.CVTESTCD"><CheckValue>EJFRACEV</CheckValue></RangeCheck></def:WhereClauseDef><def:WhereClauseDef OID="WC.CV.CVTESTCD.ELEVATDD"><RangeCheck Comparator="EQ" SoftHard="Soft" def:ItemOID="IT.CV.CVTESTCD"><CheckValue>ELEVATDD</CheckValue></RangeCheck></def:WhereClauseDef><def:WhereClauseDef OID="WC.CV.CVTESTCD.EVACUTE"><RangeCheck Comparator="EQ" SoftHard="Soft" def:ItemOID="IT.CV.CVTESTCD"><CheckValue>EVACUTE</CheckValue></RangeCheck></def:WhereClauseDef><def:WhereClauseDef OID="WC.CV.CVTESTCD.EVANEUR"><RangeCheck Comparator="EQ" SoftHard="Soft" def:ItemOID="IT.CV.CVTESTCD"><CheckValue>EVANEUR</CheckValue></RangeCheck></def:WhereClauseDef><def:WhereClauseDef OID="WC.CV.CVTESTCD.EVCARDMG"><RangeCheck Comparator="EQ" SoftHard="Soft" def:ItemOID="IT.CV.CVTESTCD"><CheckValue>EVCARDMG</CheckValue></RangeCheck></def:WhereClauseDef><def:WhereClauseDef OID="WC.CV.CVTESTCD.EVCHRNEV"><RangeCheck Comparator="EQ" SoftHard="Soft" def:ItemOID="IT.CV.CVTESTCD"><CheckValue>EVCHRNEV</CheckValue></RangeCheck></def:WhereClauseDef><def:WhereClauseDef OID="WC.CV.CVTESTCD.EVDIADYS">
            <RangeCheck Comparator="EQ" SoftHard="Soft" def:ItemOID="IT.CV.CVTESTCD">
               <CheckValue>EVDIADYS</CheckValue>
            </RangeCheck>
         </def:WhereClauseDef><def:WhereClauseDef OID="WC.CV.CVTESTCD.EVHEMCNV"><RangeCheck Comparator="EQ" SoftHard="Soft" def:ItemOID="IT.CV.CVTESTCD"><CheckValue>EVHEMCNV</CheckValue></RangeCheck></def:WhereClauseDef><def:WhereClauseDef OID="WC.CV.CVTESTCD.EVHEMO"><RangeCheck Comparator="EQ" SoftHard="Soft" def:ItemOID="IT.CV.CVTESTCD"><CheckValue>EVHEMO</CheckValue></RangeCheck></def:WhereClauseDef><def:WhereClauseDef OID="WC.CV.CVTESTCD.EVINFARC"><RangeCheck Comparator="EQ" SoftHard="Soft" def:ItemOID="IT.CV.CVTESTCD"><CheckValue>EVINFARC</CheckValue></RangeCheck></def:WhereClauseDef><def:WhereClauseDef OID="WC.CV.CVTESTCD.EVISCH"><RangeCheck Comparator="EQ" SoftHard="Soft" def:ItemOID="IT.CV.CVTESTCD"><CheckValue>EVISCH</CheckValue></RangeCheck></def:WhereClauseDef><def:WhereClauseDef OID="WC.CV.CVTESTCD.EVOBSDIS"><RangeCheck Comparator="EQ" SoftHard="Soft" def:ItemOID="IT.CV.CVTESTCD"><CheckValue>EVOBSDIS</CheckValue></RangeCheck></def:WhereClauseDef><def:WhereClauseDef OID="WC.CV.CVTESTCD.EVPULEMB"><RangeCheck Comparator="EQ" SoftHard="Soft" def:ItemOID="IT.CV.CVTESTCD"><CheckValue>EVPULEMB</CheckValue></RangeCheck></def:WhereClauseDef><def:WhereClauseDef OID="WC.CV.CVTESTCD.EVPULMED"><RangeCheck Comparator="EQ" SoftHard="Soft" def:ItemOID="IT.CV.CVTESTCD"><CheckValue>EVPULMED</CheckValue></RangeCheck></def:WhereClauseDef><def:WhereClauseDef OID="WC.CV.CVTESTCD.EVRESDIS"><RangeCheck Comparator="EQ" SoftHard="Soft" def:ItemOID="IT.CV.CVTESTCD"><CheckValue>EVRESDIS</CheckValue></RangeCheck></def:WhereClauseDef><def:WhereClauseDef OID="WC.CV.CVTESTCD.EVSIGCAD"><RangeCheck Comparator="EQ" SoftHard="Soft" def:ItemOID="IT.CV.CVTESTCD"><CheckValue>EVSIGCAD</CheckValue></RangeCheck></def:WhereClauseDef><def:WhereClauseDef OID="WC.CV.CVTESTCD.EVSTENT"><RangeCheck Comparator="EQ" SoftHard="Soft" def:ItemOID="IT.CV.CVTESTCD"><CheckValue>EVSTENT</CheckValue></RangeCheck></def:WhereClauseDef><def:WhereClauseDef OID="WC.CV.CVTESTCD.EVSTENTT"><RangeCheck Comparator="EQ" SoftHard="Soft" def:ItemOID="IT.CV.CVTESTCD"><CheckValue>EVSTENTT</CheckValue></RangeCheck></def:WhereClauseDef><def:WhereClauseDef OID="WC.CV.CVTESTCD.EVTUMOR"><RangeCheck Comparator="EQ" SoftHard="Soft" def:ItemOID="IT.CV.CVTESTCD"><CheckValue>EVTUMOR</CheckValue></RangeCheck></def:WhereClauseDef><def:WhereClauseDef OID="WC.CV.CVTESTCD.EVVALDIS">
            <RangeCheck Comparator="EQ" SoftHard="Soft" def:ItemOID="IT.CV.CVTESTCD">
               <CheckValue>EVVALDIS</CheckValue>
            </RangeCheck>
         </def:WhereClauseDef><def:WhereClauseDef OID="WC.CV.CVTESTCD.INTP"><RangeCheck Comparator="EQ" SoftHard="Soft" def:ItemOID="IT.CV.CVTESTCD"><CheckValue>INTP</CheckValue></RangeCheck></def:WhereClauseDef><def:WhereClauseDef OID="WC.CV.CVTESTCD.LHRCATH"><RangeCheck Comparator="EQ" SoftHard="Soft" def:ItemOID="IT.CV.CVTESTCD"><CheckValue>LHRCATH</CheckValue></RangeCheck></def:WhereClauseDef><def:WhereClauseDef OID="WC.CV.CVTESTCD.LVEDBP"><RangeCheck Comparator="EQ" SoftHard="Soft" def:ItemOID="IT.CV.CVTESTCD"><CheckValue>LVEDBP</CheckValue></RangeCheck></def:WhereClauseDef><def:WhereClauseDef OID="WC.CV.CVTESTCD.LVEDBPI"><RangeCheck Comparator="EQ" SoftHard="Soft" def:ItemOID="IT.CV.CVTESTCD"><CheckValue>LVEDBPI</CheckValue></RangeCheck></def:WhereClauseDef><def:WhereClauseDef OID="WC.CV.CVTESTCD.LVEF"><RangeCheck Comparator="EQ" SoftHard="Soft" def:ItemOID="IT.CV.CVTESTCD"><CheckValue>LVEF</CheckValue></RangeCheck></def:WhereClauseDef><def:WhereClauseDef OID="WC.CV.CVTESTCD.MEANINC"><RangeCheck Comparator="EQ" SoftHard="Soft" def:ItemOID="IT.CV.CVTESTCD"><CheckValue>MEANINC</CheckValue></RangeCheck></def:WhereClauseDef><def:WhereClauseDef OID="WC.CV.CVTESTCD.MRI"><RangeCheck Comparator="EQ" SoftHard="Soft" def:ItemOID="IT.CV.CVTESTCD"><CheckValue>MRI</CheckValue></RangeCheck></def:WhereClauseDef><def:WhereClauseDef OID="WC.CV.CVTESTCD.MUGA"><RangeCheck Comparator="EQ" SoftHard="Soft" def:ItemOID="IT.CV.CVTESTCD"><CheckValue>MUGA</CheckValue></RangeCheck></def:WhereClauseDef><def:WhereClauseDef OID="WC.CV.CVTESTCD.NUMVESAF"><RangeCheck Comparator="EQ" SoftHard="Soft" def:ItemOID="IT.CV.CVTESTCD"><CheckValue>NUMVESAF</CheckValue></RangeCheck></def:WhereClauseDef><def:WhereClauseDef OID="WC.CV.CVTESTCD.PARTHEMB">
            <RangeCheck Comparator="EQ" SoftHard="Soft" def:ItemOID="IT.CV.CVTESTCD">
               <CheckValue>PARTHEMB</CheckValue>
            </RangeCheck>
         </def:WhereClauseDef><def:WhereClauseDef OID="WC.CV.CVTESTCD.PLEUEFF"><RangeCheck Comparator="EQ" SoftHard="Soft" def:ItemOID="IT.CV.CVTESTCD"><CheckValue>PLEUEFF</CheckValue></RangeCheck></def:WhereClauseDef><def:WhereClauseDef OID="WC.CV.CVTESTCD.PULCAPWP"><RangeCheck Comparator="EQ" SoftHard="Soft" def:ItemOID="IT.CV.CVTESTCD"><CheckValue>PULCAPWP</CheckValue></RangeCheck></def:WhereClauseDef><def:WhereClauseDef OID="WC.CV.CVTESTCD.PULEMBAC"><RangeCheck Comparator="EQ" SoftHard="Soft" def:ItemOID="IT.CV.CVTESTCD"><CheckValue>PULEMBAC</CheckValue></RangeCheck></def:WhereClauseDef><def:WhereClauseDef OID="WC.CV.CVTESTCD.PULEMBAM"><RangeCheck Comparator="EQ" SoftHard="Soft" def:ItemOID="IT.CV.CVTESTCD"><CheckValue>PULEMBAM</CheckValue></RangeCheck></def:WhereClauseDef><def:WhereClauseDef OID="WC.CV.CVTESTCD.PULEMBSC"><RangeCheck Comparator="EQ" SoftHard="Soft" def:ItemOID="IT.CV.CVTESTCD"><CheckValue>PULEMBSC</CheckValue></RangeCheck></def:WhereClauseDef><def:WhereClauseDef OID="WC.CV.CVTESTCD.PULVRINC"><RangeCheck Comparator="EQ" SoftHard="Soft" def:ItemOID="IT.CV.CVTESTCD"><CheckValue>PULVRINC</CheckValue></RangeCheck></def:WhereClauseDef><def:WhereClauseDef OID="WC.CV.CVTESTCD.RESMRA"><RangeCheck Comparator="EQ" SoftHard="Soft" def:ItemOID="IT.CV.CVTESTCD"><CheckValue>RESMRA</CheckValue></RangeCheck></def:WhereClauseDef><def:WhereClauseDef OID="WC.CV.CVTESTCD.RESMRI"><RangeCheck Comparator="EQ" SoftHard="Soft" def:ItemOID="IT.CV.CVTESTCD"><CheckValue>RESMRI</CheckValue></RangeCheck></def:WhereClauseDef><def:WhereClauseDef OID="WC.CV.CVTESTCD.RHCATHPH"><RangeCheck Comparator="EQ" SoftHard="Soft" def:ItemOID="IT.CV.CVTESTCD"><CheckValue>RHCATHPH</CheckValue></RangeCheck></def:WhereClauseDef><def:WhereClauseDef OID="WC.CV.CVTESTCD.SYSINCNP"><RangeCheck Comparator="EQ" SoftHard="Soft" def:ItemOID="IT.CV.CVTESTCD"><CheckValue>SYSINCNP</CheckValue></RangeCheck></def:WhereClauseDef><def:WhereClauseDef OID="WC.CV.CVTESTCD.SYSVENTR"><RangeCheck Comparator="EQ" SoftHard="Soft" def:ItemOID="IT.CV.CVTESTCD"><CheckValue>SYSVENTR</CheckValue></RangeCheck></def:WhereClauseDef><def:WhereClauseDef OID="WC.CV.CVTESTCD.TRMBSTNT">
            <RangeCheck Comparator="EQ" SoftHard="Soft" def:ItemOID="IT.CV.CVTESTCD">
               <CheckValue>TRMBSTNT</CheckValue>
            </RangeCheck>
         </def:WhereClauseDef><def:WhereClauseDef OID="WC.CV.CVTESTCD.VENPULHY"><RangeCheck Comparator="EQ" SoftHard="Soft" def:ItemOID="IT.CV.CVTESTCD"><CheckValue>VENPULHY</CheckValue></RangeCheck></def:WhereClauseDef><def:WhereClauseDef OID="WC.CV.CVTESTCD.VLSTNIND">
            <RangeCheck Comparator="EQ" SoftHard="Soft" def:ItemOID="IT.CV.CVTESTCD">
               <CheckValue>VLSTNIND</CheckValue>
            </RangeCheck>
         </def:WhereClauseDef><def:WhereClauseDef OID="WC.DA.DATESTCD.DISPAMT">
            <RangeCheck Comparator="EQ" SoftHard="Soft" def:ItemOID="IT.DA.DATESTCD">
               <CheckValue>DISPAMT</CheckValue>
            </RangeCheck>
         </def:WhereClauseDef><def:WhereClauseDef OID="WC.DA.DATESTCD.RETAMT">
            <RangeCheck Comparator="EQ" SoftHard="Soft" def:ItemOID="IT.DA.DATESTCD">
               <CheckValue>RETAMT</CheckValue>
            </RangeCheck>
         </def:WhereClauseDef><def:WhereClauseDef OID="WC.DA.DATESTCD.TRTRET">
            <RangeCheck Comparator="EQ" SoftHard="Soft" def:ItemOID="IT.DA.DATESTCD">
               <CheckValue>TRTRET</CheckValue>
            </RangeCheck>
         </def:WhereClauseDef><def:WhereClauseDef OID="WC.DD.DDTESTCD.AUTOPIND">
            <RangeCheck Comparator="EQ" SoftHard="Soft" def:ItemOID="IT.DD.DDTESTCD">
               <CheckValue>AUTOPIND</CheckValue>
            </RangeCheck>
         </def:WhereClauseDef><def:WhereClauseDef OID="WC.DD.DDTESTCD.CANDUSO"><RangeCheck Comparator="EQ" SoftHard="Soft" def:ItemOID="IT.DD.DDTESTCD"><CheckValue>CANDUSO</CheckValue></RangeCheck></def:WhereClauseDef><def:WhereClauseDef OID="WC.DD.DDTESTCD.CERTDTH">
            <RangeCheck Comparator="EQ" SoftHard="Soft" def:ItemOID="IT.DD.DDTESTCD">
               <CheckValue>CERTDTH</CheckValue>
            </RangeCheck>
         </def:WhereClauseDef><def:WhereClauseDef OID="WC.DD.DDTESTCD.DNRORDER">
            <RangeCheck Comparator="EQ" SoftHard="Soft" def:ItemOID="IT.DD.DDTESTCD">
               <CheckValue>DNRORDER</CheckValue>
            </RangeCheck>
         </def:WhereClauseDef><def:WhereClauseDef OID="WC.DD.DDTESTCD.DTHCHISD"><RangeCheck Comparator="EQ" SoftHard="Soft" def:ItemOID="IT.DD.DDTESTCD"><CheckValue>DTHCHISD</CheckValue></RangeCheck></def:WhereClauseDef><def:WhereClauseDef OID="WC.DD.DDTESTCD.DTHCIRC"><RangeCheck Comparator="EQ" SoftHard="Soft" def:ItemOID="IT.DD.DDTESTCD"><CheckValue>DTHCIRC</CheckValue></RangeCheck></def:WhereClauseDef><def:WhereClauseDef OID="WC.DD.DDTESTCD.DTHCLHIS">
            <RangeCheck Comparator="EQ" SoftHard="Soft" def:ItemOID="IT.DD.DDTESTCD">
               <CheckValue>DTHCLHIS</CheckValue>
            </RangeCheck>
         </def:WhereClauseDef><def:WhereClauseDef OID="WC.DD.DDTESTCD.DTHCNDN">
            <RangeCheck Comparator="EQ" SoftHard="Soft" def:ItemOID="IT.DD.DDTESTCD">
               <CheckValue>DTHCNDN</CheckValue>
            </RangeCheck>
         </def:WhereClauseDef><def:WhereClauseDef OID="WC.DD.DDTESTCD.DTHCVPS">
            <RangeCheck Comparator="EQ" SoftHard="Soft" def:ItemOID="IT.DD.DDTESTCD">
               <CheckValue>DTHCVPS</CheckValue>
            </RangeCheck>
         </def:WhereClauseDef><def:WhereClauseDef OID="WC.DD.DDTESTCD.DTHICAUS">
            <RangeCheck Comparator="EQ" SoftHard="Soft" def:ItemOID="IT.DD.DDTESTCD">
               <CheckValue>DTHICAUS</CheckValue>
            </RangeCheck>
         </def:WhereClauseDef><def:WhereClauseDef OID="WC.DD.DDTESTCD.DTHMSUIC"><RangeCheck Comparator="EQ" SoftHard="Soft" def:ItemOID="IT.DD.DDTESTCD"><CheckValue>DTHMSUIC</CheckValue></RangeCheck></def:WhereClauseDef><def:WhereClauseDef OID="WC.DD.DDTESTCD.DTHNCVPS">
            <RangeCheck Comparator="EQ" SoftHard="Soft" def:ItemOID="IT.DD.DDTESTCD">
               <CheckValue>DTHNCVPS</CheckValue>
            </RangeCheck>
         </def:WhereClauseDef><def:WhereClauseDef OID="WC.DD.DDTESTCD.DTHOTIND"><RangeCheck Comparator="EQ" SoftHard="Soft" def:ItemOID="IT.DD.DDTESTCD"><CheckValue>DTHOTIND</CheckValue></RangeCheck></def:WhereClauseDef><def:WhereClauseDef OID="WC.DD.DDTESTCD.DTHOTINF">
            <RangeCheck Comparator="EQ" SoftHard="Soft" def:ItemOID="IT.DD.DDTESTCD">
               <CheckValue>DTHOTINF</CheckValue>
            </RangeCheck>
         </def:WhereClauseDef><def:WhereClauseDef OID="WC.DD.DDTESTCD.DTHSAE"><RangeCheck Comparator="EQ" SoftHard="Soft" def:ItemOID="IT.DD.DDTESTCD"><CheckValue>DTHSAE</CheckValue></RangeCheck></def:WhereClauseDef><def:WhereClauseDef OID="WC.DD.DDTESTCD.DTHSUDD">
            <RangeCheck Comparator="EQ" SoftHard="Soft" def:ItemOID="IT.DD.DDTESTCD">
               <CheckValue>DTHSUDD</CheckValue>
            </RangeCheck>
         </def:WhereClauseDef><def:WhereClauseDef OID="WC.DD.DDTESTCD.DTHSYMP"><RangeCheck Comparator="EQ" SoftHard="Soft" def:ItemOID="IT.DD.DDTESTCD"><CheckValue>DTHSYMP</CheckValue></RangeCheck></def:WhereClauseDef><def:WhereClauseDef OID="WC.DD.DDTESTCD.DTHUCAUS">
            <RangeCheck Comparator="EQ" SoftHard="Soft" def:ItemOID="IT.DD.DDTESTCD">
               <CheckValue>DTHUCAUS</CheckValue>
            </RangeCheck>
         </def:WhereClauseDef><def:WhereClauseDef OID="WC.DD.DDTESTCD.DTHWITN">
            <RangeCheck Comparator="EQ" SoftHard="Soft" def:ItemOID="IT.DD.DDTESTCD">
               <CheckValue>DTHWITN</CheckValue>
            </RangeCheck>
         </def:WhereClauseDef><def:WhereClauseDef OID="WC.DD.DDTESTCD.HAEMORG"><RangeCheck Comparator="EQ" SoftHard="Soft" def:ItemOID="IT.DD.DDTESTCD"><CheckValue>HAEMORG</CheckValue></RangeCheck></def:WhereClauseDef><def:WhereClauseDef OID="WC.DD.DDTESTCD.LOCDTH">
            <RangeCheck Comparator="EQ" SoftHard="Soft" def:ItemOID="IT.DD.DDTESTCD">
               <CheckValue>LOCDTH</CheckValue>
            </RangeCheck>
         </def:WhereClauseDef><def:WhereClauseDef OID="WC.DD.DDTESTCD.LSEEADTC">
            <RangeCheck Comparator="EQ" SoftHard="Soft" def:ItemOID="IT.DD.DDTESTCD">
               <CheckValue>LSEEADTC</CheckValue>
            </RangeCheck>
         </def:WhereClauseDef><def:WhereClauseDef OID="WC.DD.DDTESTCD.MEDDTH">
            <RangeCheck Comparator="EQ" SoftHard="Soft" def:ItemOID="IT.DD.DDTESTCD">
               <CheckValue>MEDDTH</CheckValue>
            </RangeCheck>
         </def:WhereClauseDef><def:WhereClauseDef OID="WC.DD.DDTESTCD.MEDDTHD"><RangeCheck Comparator="EQ" SoftHard="Soft" def:ItemOID="IT.DD.DDTESTCD"><CheckValue>MEDDTHD</CheckValue></RangeCheck></def:WhereClauseDef><def:WhereClauseDef OID="WC.DD.DDTESTCD.NEWSYMP">
            <RangeCheck Comparator="EQ" SoftHard="Soft" def:ItemOID="IT.DD.DDTESTCD">
               <CheckValue>NEWSYMP</CheckValue>
            </RangeCheck>
         </def:WhereClauseDef><def:WhereClauseDef OID="WC.DD.DDTESTCD.NEWSYMPD"><RangeCheck Comparator="EQ" SoftHard="Soft" def:ItemOID="IT.DD.DDTESTCD"><CheckValue>NEWSYMPD</CheckValue></RangeCheck></def:WhereClauseDef><def:WhereClauseDef OID="WC.DD.DDTESTCD.PRCDTH">
            <RangeCheck Comparator="EQ" SoftHard="Soft" def:ItemOID="IT.DD.DDTESTCD">
               <CheckValue>PRCDTH</CheckValue>
            </RangeCheck>
         </def:WhereClauseDef><def:WhereClauseDef OID="WC.DD.DDTESTCD.RESUSAT">
            <RangeCheck Comparator="EQ" SoftHard="Soft" def:ItemOID="IT.DD.DDTESTCD">
               <CheckValue>RESUSAT</CheckValue>
            </RangeCheck>
         </def:WhereClauseDef><def:WhereClauseDef OID="WC.DD.DDTESTCD.SECCAUSE">
            <RangeCheck Comparator="EQ" SoftHard="Soft" def:ItemOID="IT.DD.DDTESTCD">
               <CheckValue>SECCAUSE</CheckValue>
            </RangeCheck>
         </def:WhereClauseDef><def:WhereClauseDef OID="WC.DD.DDTESTCD.SECDTH"><RangeCheck Comparator="EQ" SoftHard="Soft" def:ItemOID="IT.DD.DDTESTCD"><CheckValue>SECDTH</CheckValue></RangeCheck></def:WhereClauseDef><def:WhereClauseDef OID="WC.DD.DDTESTCD.SRSEPSIS"><RangeCheck Comparator="EQ" SoftHard="Soft" def:ItemOID="IT.DD.DDTESTCD"><CheckValue>SRSEPSIS</CheckValue></RangeCheck></def:WhereClauseDef><def:WhereClauseDef OID="WC.DD.DDTESTCD.SUBJTERM">
            <RangeCheck Comparator="EQ" SoftHard="Soft" def:ItemOID="IT.DD.DDTESTCD">
               <CheckValue>SUBJTERM</CheckValue>
            </RangeCheck>
         </def:WhereClauseDef><def:WhereClauseDef OID="WC.DD.DDTESTCD.SUIRF"><RangeCheck Comparator="EQ" SoftHard="Soft" def:ItemOID="IT.DD.DDTESTCD"><CheckValue>SUIRF</CheckValue></RangeCheck></def:WhereClauseDef><def:WhereClauseDef OID="WC.DD.DDTESTCD.SUIRFD"><RangeCheck Comparator="EQ" SoftHard="Soft" def:ItemOID="IT.DD.DDTESTCD"><CheckValue>SUIRFD</CheckValue></RangeCheck></def:WhereClauseDef><def:WhereClauseDef OID="WC.DD.DDTESTCD.TRAUMA"><RangeCheck Comparator="EQ" SoftHard="Soft" def:ItemOID="IT.DD.DDTESTCD"><CheckValue>TRAUMA</CheckValue></RangeCheck></def:WhereClauseDef><def:WhereClauseDef OID="WC.DO.DOTESTCD.COMPOS">
            <RangeCheck Comparator="EQ" SoftHard="Soft" def:ItemOID="IT.DO.DOTESTCD">
               <CheckValue>COMPOS</CheckValue>
            </RangeCheck>
         </def:WhereClauseDef><def:WhereClauseDef OID="WC.EG.EGTESTCD.ABNNOS">
            <RangeCheck Comparator="EQ" SoftHard="Soft" def:ItemOID="IT.EG.EGTESTCD">
               <CheckValue>ABNNOS</CheckValue>
            </RangeCheck>
         </def:WhereClauseDef><def:WhereClauseDef OID="WC.EG.EGTESTCD.AVCOND">
            <RangeCheck Comparator="EQ" SoftHard="Soft" def:ItemOID="IT.EG.EGTESTCD">
               <CheckValue>AVCOND</CheckValue>
            </RangeCheck>
         </def:WhereClauseDef><def:WhereClauseDef OID="WC.EG.EGTESTCD.AXISVOLT">
            <RangeCheck Comparator="EQ" SoftHard="Soft" def:ItemOID="IT.EG.EGTESTCD">
               <CheckValue>AXISVOLT</CheckValue>
            </RangeCheck>
         </def:WhereClauseDef><def:WhereClauseDef OID="WC.EG.EGTESTCD.CHYPTENL">
            <RangeCheck Comparator="EQ" SoftHard="Soft" def:ItemOID="IT.EG.EGTESTCD">
               <CheckValue>CHYPTENL</CheckValue>
            </RangeCheck>
         </def:WhereClauseDef><def:WhereClauseDef OID="WC.EG.EGTESTCD.CONDNOS"><RangeCheck Comparator="EQ" SoftHard="Soft" def:ItemOID="IT.EG.EGTESTCD"><CheckValue>CONDNOS</CheckValue></RangeCheck></def:WhereClauseDef><def:WhereClauseDef OID="WC.EG.EGTESTCD.EGHRMN">
            <RangeCheck Comparator="EQ" SoftHard="Soft" def:ItemOID="IT.EG.EGTESTCD">
               <CheckValue>EGHRMN</CheckValue>
            </RangeCheck>
         </def:WhereClauseDef><def:WhereClauseDef OID="WC.EG.EGTESTCD.INTP">
            <RangeCheck Comparator="EQ" SoftHard="Soft" def:ItemOID="IT.EG.EGTESTCD">
               <CheckValue>INTP</CheckValue>
            </RangeCheck>
         </def:WhereClauseDef><def:WhereClauseDef OID="WC.EG.EGTESTCD.IVTIACD">
            <RangeCheck Comparator="EQ" SoftHard="Soft" def:ItemOID="IT.EG.EGTESTCD">
               <CheckValue>IVTIACD</CheckValue>
            </RangeCheck>
         </def:WhereClauseDef><def:WhereClauseDef OID="WC.EG.EGTESTCD.MI"><RangeCheck Comparator="EQ" SoftHard="Soft" def:ItemOID="IT.EG.EGTESTCD"><CheckValue>MI</CheckValue></RangeCheck></def:WhereClauseDef><def:WhereClauseDef OID="WC.EG.EGTESTCD.MORPHNOS">
            <RangeCheck Comparator="EQ" SoftHard="Soft" def:ItemOID="IT.EG.EGTESTCD">
               <CheckValue>MORPHNOS</CheckValue>
            </RangeCheck>
         </def:WhereClauseDef><def:WhereClauseDef OID="WC.EG.EGTESTCD.PACEMAKR"><RangeCheck Comparator="EQ" SoftHard="Soft" def:ItemOID="IT.EG.EGTESTCD"><CheckValue>PACEMAKR</CheckValue></RangeCheck></def:WhereClauseDef><def:WhereClauseDef OID="WC.EG.EGTESTCD.PRAG">
            <RangeCheck Comparator="EQ" SoftHard="Soft" def:ItemOID="IT.EG.EGTESTCD">
               <CheckValue>PRAG</CheckValue>
            </RangeCheck>
         </def:WhereClauseDef><def:WhereClauseDef OID="WC.EG.EGTESTCD.QRSAG">
            <RangeCheck Comparator="EQ" SoftHard="Soft" def:ItemOID="IT.EG.EGTESTCD">
               <CheckValue>QRSAG</CheckValue>
            </RangeCheck>
         </def:WhereClauseDef><def:WhereClauseDef OID="WC.EG.EGTESTCD.QTAG">
            <RangeCheck Comparator="EQ" SoftHard="Soft" def:ItemOID="IT.EG.EGTESTCD">
               <CheckValue>QTAG</CheckValue>
            </RangeCheck>
         </def:WhereClauseDef><def:WhereClauseDef OID="WC.EG.EGTESTCD.QTCBAG">
            <RangeCheck Comparator="EQ" SoftHard="Soft" def:ItemOID="IT.EG.EGTESTCD">
               <CheckValue>QTCBAG</CheckValue>
            </RangeCheck>
         </def:WhereClauseDef><def:WhereClauseDef OID="WC.EG.EGTESTCD.QTCFAG">
            <RangeCheck Comparator="EQ" SoftHard="Soft" def:ItemOID="IT.EG.EGTESTCD">
               <CheckValue>QTCFAG</CheckValue>
            </RangeCheck>
         </def:WhereClauseDef><def:WhereClauseDef OID="WC.EG.EGTESTCD.QTCUNS">
            <RangeCheck Comparator="EQ" SoftHard="Soft" def:ItemOID="IT.EG.EGTESTCD">
               <CheckValue>QTCUNS</CheckValue>
            </RangeCheck>
         </def:WhereClauseDef><def:WhereClauseDef OID="WC.EG.EGTESTCD.RHYNOS">
            <RangeCheck Comparator="EQ" SoftHard="Soft" def:ItemOID="IT.EG.EGTESTCD">
               <CheckValue>RHYNOS</CheckValue>
            </RangeCheck>
         </def:WhereClauseDef><def:WhereClauseDef OID="WC.EG.EGTESTCD.RRAG">
            <RangeCheck Comparator="EQ" SoftHard="Soft" def:ItemOID="IT.EG.EGTESTCD">
               <CheckValue>RRAG</CheckValue>
            </RangeCheck>
         </def:WhereClauseDef><def:WhereClauseDef OID="WC.EG.EGTESTCD.SNRARRY">
            <RangeCheck Comparator="EQ" SoftHard="Soft" def:ItemOID="IT.EG.EGTESTCD">
               <CheckValue>SNRARRY</CheckValue>
            </RangeCheck>
         </def:WhereClauseDef><def:WhereClauseDef OID="WC.EG.EGTESTCD.SPRARRY"><RangeCheck Comparator="EQ" SoftHard="Soft" def:ItemOID="IT.EG.EGTESTCD"><CheckValue>SPRARRY</CheckValue></RangeCheck></def:WhereClauseDef><def:WhereClauseDef OID="WC.EG.EGTESTCD.SPRTARRY"><RangeCheck Comparator="EQ" SoftHard="Soft" def:ItemOID="IT.EG.EGTESTCD"><CheckValue>SPRTARRY</CheckValue></RangeCheck></def:WhereClauseDef><def:WhereClauseDef OID="WC.EG.EGTESTCD.STSTWUW">
            <RangeCheck Comparator="EQ" SoftHard="Soft" def:ItemOID="IT.EG.EGTESTCD">
               <CheckValue>STSTWUW</CheckValue>
            </RangeCheck>
         </def:WhereClauseDef><def:WhereClauseDef OID="WC.EG.EGTESTCD.VTARRY">
            <RangeCheck Comparator="EQ" SoftHard="Soft" def:ItemOID="IT.EG.EGTESTCD">
               <CheckValue>VTARRY</CheckValue>
            </RangeCheck>
         </def:WhereClauseDef><def:WhereClauseDef OID="WC.EG.EGTESTCD.VTTARRY"><RangeCheck Comparator="EQ" SoftHard="Soft" def:ItemOID="IT.EG.EGTESTCD"><CheckValue>VTTARRY</CheckValue></RangeCheck></def:WhereClauseDef><def:WhereClauseDef OID="WC.FAAE.FATESTCD.AINJSITS"><RangeCheck Comparator="EQ" SoftHard="Soft" def:ItemOID="IT.FAAE.FATESTCD"><CheckValue>AINJSITS</CheckValue></RangeCheck></def:WhereClauseDef><def:WhereClauseDef OID="WC.FAAE.FATESTCD.CURAL"><RangeCheck Comparator="EQ" SoftHard="Soft" def:ItemOID="IT.FAAE.FATESTCD"><CheckValue>CURAL</CheckValue></RangeCheck></def:WhereClauseDef><def:WhereClauseDef OID="WC.FAAE.FATESTCD.CURDR"><RangeCheck Comparator="EQ" SoftHard="Soft" def:ItemOID="IT.FAAE.FATESTCD"><CheckValue>CURDR</CheckValue></RangeCheck></def:WhereClauseDef><def:WhereClauseDef OID="WC.FAAE.FATESTCD.FDRGALGH"><RangeCheck Comparator="EQ" SoftHard="Soft" def:ItemOID="IT.FAAE.FATESTCD"><CheckValue>FDRGALGH</CheckValue></RangeCheck></def:WhereClauseDef><def:WhereClauseDef OID="WC.FAAE.FATESTCD.FPSD"><RangeCheck Comparator="EQ" SoftHard="Soft" def:ItemOID="IT.FAAE.FATESTCD"><CheckValue>FPSD</CheckValue></RangeCheck></def:WhereClauseDef><def:WhereClauseDef OID="WC.FAAE.FATESTCD.FSUI"><RangeCheck Comparator="EQ" SoftHard="Soft" def:ItemOID="IT.FAAE.FATESTCD"><CheckValue>FSUI</CheckValue></RangeCheck></def:WhereClauseDef><def:WhereClauseDef OID="WC.FAAE.FATESTCD.GRINT"><RangeCheck Comparator="EQ" SoftHard="Soft" def:ItemOID="IT.FAAE.FATESTCD"><CheckValue>GRINT</CheckValue></RangeCheck></def:WhereClauseDef><def:WhereClauseDef OID="WC.FAAE.FATESTCD.NCUTFIND"><RangeCheck Comparator="EQ" SoftHard="Soft" def:ItemOID="IT.FAAE.FATESTCD"><CheckValue>NCUTFIND</CheckValue></RangeCheck></def:WhereClauseDef><def:WhereClauseDef OID="WC.FAAE.FATESTCD.PCAECMED"><RangeCheck Comparator="EQ" SoftHard="Soft" def:ItemOID="IT.FAAE.FATESTCD"><CheckValue>PCAECMED</CheckValue></RangeCheck></def:WhereClauseDef><def:WhereClauseDef OID="WC.FAAE.FATESTCD.PCAEDUST"><RangeCheck Comparator="EQ" SoftHard="Soft" def:ItemOID="IT.FAAE.FATESTCD"><CheckValue>PCAEDUST</CheckValue></RangeCheck></def:WhereClauseDef><def:WhereClauseDef OID="WC.FAAE.FATESTCD.PCAEIP"><RangeCheck Comparator="EQ" SoftHard="Soft" def:ItemOID="IT.FAAE.FATESTCD"><CheckValue>PCAEIP</CheckValue></RangeCheck></def:WhereClauseDef><def:WhereClauseDef OID="WC.FAAE.FATESTCD.PCAEIPCH"><RangeCheck Comparator="EQ" SoftHard="Soft" def:ItemOID="IT.FAAE.FATESTCD"><CheckValue>PCAEIPCH</CheckValue></RangeCheck></def:WhereClauseDef><def:WhereClauseDef OID="WC.FAAE.FATESTCD.PCAELKEF"><RangeCheck Comparator="EQ" SoftHard="Soft" def:ItemOID="IT.FAAE.FATESTCD"><CheckValue>PCAELKEF</CheckValue></RangeCheck></def:WhereClauseDef><def:WhereClauseDef OID="WC.FAAE.FATESTCD.PCAEMEDC"><RangeCheck Comparator="EQ" SoftHard="Soft" def:ItemOID="IT.FAAE.FATESTCD"><CheckValue>PCAEMEDC</CheckValue></RangeCheck></def:WhereClauseDef><def:WhereClauseDef OID="WC.FAAE.FATESTCD.PCAEOTH"><RangeCheck Comparator="EQ" SoftHard="Soft" def:ItemOID="IT.FAAE.FATESTCD"><CheckValue>PCAEOTH</CheckValue></RangeCheck></def:WhereClauseDef><def:WhereClauseDef OID="WC.FAAE.FATESTCD.PCAEOTTX"><RangeCheck Comparator="EQ" SoftHard="Soft" def:ItemOID="IT.FAAE.FATESTCD"><CheckValue>PCAEOTTX</CheckValue></RangeCheck></def:WhereClauseDef><def:WhereClauseDef OID="WC.FAAE.FATESTCD.PCAEWDIP"><RangeCheck Comparator="EQ" SoftHard="Soft" def:ItemOID="IT.FAAE.FATESTCD"><CheckValue>PCAEWDIP</CheckValue></RangeCheck></def:WhereClauseDef><def:WhereClauseDef OID="WC.FAAE.FATESTCD.PRSTABAC"><RangeCheck Comparator="EQ" SoftHard="Soft" def:ItemOID="IT.FAAE.FATESTCD"><CheckValue>PRSTABAC</CheckValue></RangeCheck></def:WhereClauseDef><def:WhereClauseDef OID="WC.FAAE.FATESTCD.PSAEPSC"><RangeCheck Comparator="EQ" SoftHard="Soft" def:ItemOID="IT.FAAE.FATESTCD"><CheckValue>PSAEPSC</CheckValue></RangeCheck></def:WhereClauseDef><def:WhereClauseDef OID="WC.FAAE.FATESTCD.PSAEPSST"><RangeCheck Comparator="EQ" SoftHard="Soft" def:ItemOID="IT.FAAE.FATESTCD"><CheckValue>PSAEPSST</CheckValue></RangeCheck></def:WhereClauseDef><def:WhereClauseDef OID="WC.FAAE.FATESTCD.PSRAETX"><RangeCheck Comparator="EQ" SoftHard="Soft" def:ItemOID="IT.FAAE.FATESTCD"><CheckValue>PSRAETX</CheckValue></RangeCheck></def:WhereClauseDef><def:WhereClauseDef OID="WC.FAAE.FATESTCD.PSYCHP"><RangeCheck Comparator="EQ" SoftHard="Soft" def:ItemOID="IT.FAAE.FATESTCD"><CheckValue>PSYCHP</CheckValue></RangeCheck></def:WhereClauseDef><def:WhereClauseDef OID="WC.FAAE.FATESTCD.RASHSTAT"><RangeCheck Comparator="EQ" SoftHard="Soft" def:ItemOID="IT.FAAE.FATESTCD"><CheckValue>RASHSTAT</CheckValue></RangeCheck></def:WhereClauseDef><def:WhereClauseDef OID="WC.FAAE.FATESTCD.SDRGALGH"><RangeCheck Comparator="EQ" SoftHard="Soft" def:ItemOID="IT.FAAE.FATESTCD"><CheckValue>SDRGALGH</CheckValue></RangeCheck></def:WhereClauseDef><def:WhereClauseDef OID="WC.FAAE.FATESTCD.SKRSHHSR"><RangeCheck Comparator="EQ" SoftHard="Soft" def:ItemOID="IT.FAAE.FATESTCD"><CheckValue>SKRSHHSR</CheckValue></RangeCheck></def:WhereClauseDef><def:WhereClauseDef OID="WC.FAAE.FATESTCD.SUIID"><RangeCheck Comparator="EQ" SoftHard="Soft" def:ItemOID="IT.FAAE.FATESTCD"><CheckValue>SUIID</CheckValue></RangeCheck></def:WhereClauseDef><def:WhereClauseDef OID="WC.FAAE.FATESTCD.TXISRSYM"><RangeCheck Comparator="EQ" SoftHard="Soft" def:ItemOID="IT.FAAE.FATESTCD"><CheckValue>TXISRSYM</CheckValue></RangeCheck></def:WhereClauseDef><def:WhereClauseDef OID="WC.FACE.FATESTCD.ABNNEUED"><RangeCheck Comparator="EQ" SoftHard="Soft" def:ItemOID="IT.FACE.FATESTCD"><CheckValue>ABNNEUED</CheckValue></RangeCheck></def:WhereClauseDef><def:WhereClauseDef OID="WC.FACE.FATESTCD.ABNNEUEX"><RangeCheck Comparator="EQ" SoftHard="Soft" def:ItemOID="IT.FACE.FATESTCD"><CheckValue>ABNNEUEX</CheckValue></RangeCheck></def:WhereClauseDef><def:WhereClauseDef OID="WC.FACE.FATESTCD.ABNPHEX"><RangeCheck Comparator="EQ" SoftHard="Soft" def:ItemOID="IT.FACE.FATESTCD"><CheckValue>ABNPHEX</CheckValue></RangeCheck></def:WhereClauseDef><def:WhereClauseDef OID="WC.FACE.FATESTCD.ACCONF"><RangeCheck Comparator="EQ" SoftHard="Soft" def:ItemOID="IT.FACE.FATESTCD"><CheckValue>ACCONF</CheckValue></RangeCheck></def:WhereClauseDef><def:WhereClauseDef OID="WC.FACE.FATESTCD.ACCONFD"><RangeCheck Comparator="EQ" SoftHard="Soft" def:ItemOID="IT.FACE.FATESTCD"><CheckValue>ACCONFD</CheckValue></RangeCheck></def:WhereClauseDef><def:WhereClauseDef OID="WC.FACE.FATESTCD.ACUTSYM"><RangeCheck Comparator="EQ" SoftHard="Soft" def:ItemOID="IT.FACE.FATESTCD"><CheckValue>ACUTSYM</CheckValue></RangeCheck></def:WhereClauseDef><def:WhereClauseDef OID="WC.FACE.FATESTCD.ADLACT"><RangeCheck Comparator="EQ" SoftHard="Soft" def:ItemOID="IT.FACE.FATESTCD"><CheckValue>ADLACT</CheckValue></RangeCheck></def:WhereClauseDef><def:WhereClauseDef OID="WC.FACE.FATESTCD.AGE55"><RangeCheck Comparator="EQ" SoftHard="Soft" def:ItemOID="IT.FACE.FATESTCD"><CheckValue>AGE55</CheckValue></RangeCheck></def:WhereClauseDef><def:WhereClauseDef OID="WC.FACE.FATESTCD.ANGEXERT"><RangeCheck Comparator="EQ" SoftHard="Soft" def:ItemOID="IT.FACE.FATESTCD"><CheckValue>ANGEXERT</CheckValue></RangeCheck></def:WhereClauseDef><def:WhereClauseDef OID="WC.FACE.FATESTCD.ANGNEW"><RangeCheck Comparator="EQ" SoftHard="Soft" def:ItemOID="IT.FACE.FATESTCD"><CheckValue>ANGNEW</CheckValue></RangeCheck></def:WhereClauseDef><def:WhereClauseDef OID="WC.FACE.FATESTCD.ANGOCCPR"><RangeCheck Comparator="EQ" SoftHard="Soft" def:ItemOID="IT.FACE.FATESTCD"><CheckValue>ANGOCCPR</CheckValue></RangeCheck></def:WhereClauseDef><def:WhereClauseDef OID="WC.FACE.FATESTCD.ANGREST"><RangeCheck Comparator="EQ" SoftHard="Soft" def:ItemOID="IT.FACE.FATESTCD"><CheckValue>ANGREST</CheckValue></RangeCheck></def:WhereClauseDef><def:WhereClauseDef OID="WC.FACE.FATESTCD.ANGSMPMI"><RangeCheck Comparator="EQ" SoftHard="Soft" def:ItemOID="IT.FACE.FATESTCD"><CheckValue>ANGSMPMI</CheckValue></RangeCheck></def:WhereClauseDef><def:WhereClauseDef OID="WC.FACE.FATESTCD.AOVALABD"><RangeCheck Comparator="EQ" SoftHard="Soft" def:ItemOID="IT.FACE.FATESTCD"><CheckValue>AOVALABD</CheckValue></RangeCheck></def:WhereClauseDef><def:WhereClauseDef OID="WC.FACE.FATESTCD.AOVALABN"><RangeCheck Comparator="EQ" SoftHard="Soft" def:ItemOID="IT.FACE.FATESTCD"><CheckValue>AOVALABN</CheckValue></RangeCheck></def:WhereClauseDef><def:WhereClauseDef OID="WC.FACE.FATESTCD.ARRDIAG"><RangeCheck Comparator="EQ" SoftHard="Soft" def:ItemOID="IT.FACE.FATESTCD"><CheckValue>ARRDIAG</CheckValue></RangeCheck></def:WhereClauseDef><def:WhereClauseDef OID="WC.FACE.FATESTCD.ARRREL"><RangeCheck Comparator="EQ" SoftHard="Soft" def:ItemOID="IT.FACE.FATESTCD"><CheckValue>ARRREL</CheckValue></RangeCheck></def:WhereClauseDef><def:WhereClauseDef OID="WC.FACE.FATESTCD.ATAXIA"><RangeCheck Comparator="EQ" SoftHard="Soft" def:ItemOID="IT.FACE.FATESTCD"><CheckValue>ATAXIA</CheckValue></RangeCheck></def:WhereClauseDef><def:WhereClauseDef OID="WC.FACE.FATESTCD.ATAXIAD"><RangeCheck Comparator="EQ" SoftHard="Soft" def:ItemOID="IT.FACE.FATESTCD"><CheckValue>ATAXIAD</CheckValue></RangeCheck></def:WhereClauseDef><def:WhereClauseDef OID="WC.FACE.FATESTCD.ATYPSYMP"><RangeCheck Comparator="EQ" SoftHard="Soft" def:ItemOID="IT.FACE.FATESTCD"><CheckValue>ATYPSYMP</CheckValue></RangeCheck></def:WhereClauseDef><def:WhereClauseDef OID="WC.FACE.FATESTCD.BIOPTKN"><RangeCheck Comparator="EQ" SoftHard="Soft" def:ItemOID="IT.FACE.FATESTCD"><CheckValue>BIOPTKN</CheckValue></RangeCheck></def:WhereClauseDef><def:WhereClauseDef OID="WC.FACE.FATESTCD.CALFSW"><RangeCheck Comparator="EQ" SoftHard="Soft" def:ItemOID="IT.FACE.FATESTCD"><CheckValue>CALFSW</CheckValue></RangeCheck></def:WhereClauseDef><def:WhereClauseDef OID="WC.FACE.FATESTCD.CALFTEND"><RangeCheck Comparator="EQ" SoftHard="Soft" def:ItemOID="IT.FACE.FATESTCD"><CheckValue>CALFTEND</CheckValue></RangeCheck></def:WhereClauseDef><def:WhereClauseDef OID="WC.FACE.FATESTCD.CHRSYMP"><RangeCheck Comparator="EQ" SoftHard="Soft" def:ItemOID="IT.FACE.FATESTCD"><CheckValue>CHRSYMP</CheckValue></RangeCheck></def:WhereClauseDef><def:WhereClauseDef OID="WC.FACE.FATESTCD.CONFBED"><RangeCheck Comparator="EQ" SoftHard="Soft" def:ItemOID="IT.FACE.FATESTCD"><CheckValue>CONFBED</CheckValue></RangeCheck></def:WhereClauseDef><def:WhereClauseDef OID="WC.FACE.FATESTCD.CVARR"><RangeCheck Comparator="EQ" SoftHard="Soft" def:ItemOID="IT.FACE.FATESTCD"><CheckValue>CVARR</CheckValue></RangeCheck></def:WhereClauseDef><def:WhereClauseDef OID="WC.FACE.FATESTCD.DECRCOND"><RangeCheck Comparator="EQ" SoftHard="Soft" def:ItemOID="IT.FACE.FATESTCD"><CheckValue>DECRCOND</CheckValue></RangeCheck></def:WhereClauseDef><def:WhereClauseDef OID="WC.FACE.FATESTCD.DECRCONS"><RangeCheck Comparator="EQ" SoftHard="Soft" def:ItemOID="IT.FACE.FATESTCD"><CheckValue>DECRCONS</CheckValue></RangeCheck></def:WhereClauseDef><def:WhereClauseDef OID="WC.FACE.FATESTCD.DIAGSTRK"><RangeCheck Comparator="EQ" SoftHard="Soft" def:ItemOID="IT.FACE.FATESTCD"><CheckValue>DIAGSTRK</CheckValue></RangeCheck></def:WhereClauseDef><def:WhereClauseDef OID="WC.FACE.FATESTCD.DIPLOP"><RangeCheck Comparator="EQ" SoftHard="Soft" def:ItemOID="IT.FACE.FATESTCD"><CheckValue>DIPLOP</CheckValue></RangeCheck></def:WhereClauseDef><def:WhereClauseDef OID="WC.FACE.FATESTCD.DIPLOPD"><RangeCheck Comparator="EQ" SoftHard="Soft" def:ItemOID="IT.FACE.FATESTCD"><CheckValue>DIPLOPD</CheckValue></RangeCheck></def:WhereClauseDef><def:WhereClauseDef OID="WC.FACE.FATESTCD.DYSPLAND"><RangeCheck Comparator="EQ" SoftHard="Soft" def:ItemOID="IT.FACE.FATESTCD"><CheckValue>DYSPLAND</CheckValue></RangeCheck></def:WhereClauseDef><def:WhereClauseDef OID="WC.FACE.FATESTCD.DYSPLANG"><RangeCheck Comparator="EQ" SoftHard="Soft" def:ItemOID="IT.FACE.FATESTCD"><CheckValue>DYSPLANG</CheckValue></RangeCheck></def:WhereClauseDef><def:WhereClauseDef OID="WC.FACE.FATESTCD.DYSPSWAD"><RangeCheck Comparator="EQ" SoftHard="Soft" def:ItemOID="IT.FACE.FATESTCD"><CheckValue>DYSPSWAD</CheckValue></RangeCheck></def:WhereClauseDef><def:WhereClauseDef OID="WC.FACE.FATESTCD.DYSPSWAL"><RangeCheck Comparator="EQ" SoftHard="Soft" def:ItemOID="IT.FACE.FATESTCD"><CheckValue>DYSPSWAL</CheckValue></RangeCheck></def:WhereClauseDef><def:WhereClauseDef OID="WC.FACE.FATESTCD.ECSPACWJ"><RangeCheck Comparator="EQ" SoftHard="Soft" def:ItemOID="IT.FACE.FATESTCD"><CheckValue>ECSPACWJ</CheckValue></RangeCheck></def:WhereClauseDef><def:WhereClauseDef OID="WC.FACE.FATESTCD.ECSSRDTC"><RangeCheck Comparator="EQ" SoftHard="Soft" def:ItemOID="IT.FACE.FATESTCD"><CheckValue>ECSSRDTC</CheckValue></RangeCheck></def:WhereClauseDef><def:WhereClauseDef OID="WC.FACE.FATESTCD.ECSSRSPA"><RangeCheck Comparator="EQ" SoftHard="Soft" def:ItemOID="IT.FACE.FATESTCD"><CheckValue>ECSSRSPA</CheckValue></RangeCheck></def:WhereClauseDef><def:WhereClauseDef OID="WC.FACE.FATESTCD.ECSSRSPF"><RangeCheck Comparator="EQ" SoftHard="Soft" def:ItemOID="IT.FACE.FATESTCD"><CheckValue>ECSSRSPF</CheckValue></RangeCheck></def:WhereClauseDef><def:WhereClauseDef OID="WC.FACE.FATESTCD.EPEVAL"><RangeCheck Comparator="EQ" SoftHard="Soft" def:ItemOID="IT.FACE.FATESTCD"><CheckValue>EPEVAL</CheckValue></RangeCheck></def:WhereClauseDef><def:WhereClauseDef OID="WC.FACE.FATESTCD.EPREP"><RangeCheck Comparator="EQ" SoftHard="Soft" def:ItemOID="IT.FACE.FATESTCD"><CheckValue>EPREP</CheckValue></RangeCheck></def:WhereClauseDef><def:WhereClauseDef OID="WC.FACE.FATESTCD.ESCMED"><RangeCheck Comparator="EQ" SoftHard="Soft" def:ItemOID="IT.FACE.FATESTCD"><CheckValue>ESCMED</CheckValue></RangeCheck></def:WhereClauseDef><def:WhereClauseDef OID="WC.FACE.FATESTCD.EVNTSAE"><RangeCheck Comparator="EQ" SoftHard="Soft" def:ItemOID="IT.FACE.FATESTCD"><CheckValue>EVNTSAE</CheckValue></RangeCheck></def:WhereClauseDef><def:WhereClauseDef OID="WC.FACE.FATESTCD.EVTRAUMA"><RangeCheck Comparator="EQ" SoftHard="Soft" def:ItemOID="IT.FACE.FATESTCD"><CheckValue>EVTRAUMA</CheckValue></RangeCheck></def:WhereClauseDef><def:WhereClauseDef OID="WC.FACE.FATESTCD.FNDIAG"><RangeCheck Comparator="EQ" SoftHard="Soft" def:ItemOID="IT.FACE.FATESTCD"><CheckValue>FNDIAG</CheckValue></RangeCheck></def:WhereClauseDef><def:WhereClauseDef OID="WC.FACE.FATESTCD.FSTDTYCH"><RangeCheck Comparator="EQ" SoftHard="Soft" def:ItemOID="IT.FACE.FATESTCD"><CheckValue>FSTDTYCH</CheckValue></RangeCheck></def:WhereClauseDef><def:WhereClauseDef OID="WC.FACE.FATESTCD.FVEINSGN"><RangeCheck Comparator="EQ" SoftHard="Soft" def:ItemOID="IT.FACE.FATESTCD"><CheckValue>FVEINSGN</CheckValue></RangeCheck></def:WhereClauseDef><def:WhereClauseDef OID="WC.FACE.FATESTCD.HFCHGTRT"><RangeCheck Comparator="EQ" SoftHard="Soft" def:ItemOID="IT.FACE.FATESTCD"><CheckValue>HFCHGTRT</CheckValue></RangeCheck></def:WhereClauseDef><def:WhereClauseDef OID="WC.FACE.FATESTCD.HFSIGN"><RangeCheck Comparator="EQ" SoftHard="Soft" def:ItemOID="IT.FACE.FATESTCD"><CheckValue>HFSIGN</CheckValue></RangeCheck></def:WhereClauseDef><def:WhereClauseDef OID="WC.FACE.FATESTCD.HFSYMP"><RangeCheck Comparator="EQ" SoftHard="Soft" def:ItemOID="IT.FACE.FATESTCD"><CheckValue>HFSYMP</CheckValue></RangeCheck></def:WhereClauseDef><def:WhereClauseDef OID="WC.FACE.FATESTCD.HMDIZVED"><RangeCheck Comparator="EQ" SoftHard="Soft" def:ItemOID="IT.FACE.FATESTCD"><CheckValue>HMDIZVED</CheckValue></RangeCheck></def:WhereClauseDef><def:WhereClauseDef OID="WC.FACE.FATESTCD.HMDIZVER"><RangeCheck Comparator="EQ" SoftHard="Soft" def:ItemOID="IT.FACE.FATESTCD"><CheckValue>HMDIZVER</CheckValue></RangeCheck></def:WhereClauseDef><def:WhereClauseDef OID="WC.FACE.FATESTCD.HOLTEVAL"><RangeCheck Comparator="EQ" SoftHard="Soft" def:ItemOID="IT.FACE.FATESTCD"><CheckValue>HOLTEVAL</CheckValue></RangeCheck></def:WhereClauseDef><def:WhereClauseDef OID="WC.FACE.FATESTCD.HOLTREP"><RangeCheck Comparator="EQ" SoftHard="Soft" def:ItemOID="IT.FACE.FATESTCD"><CheckValue>HOLTREP</CheckValue></RangeCheck></def:WhereClauseDef><def:WhereClauseDef OID="WC.FACE.FATESTCD.HYPOTENS"><RangeCheck Comparator="EQ" SoftHard="Soft" def:ItemOID="IT.FACE.FATESTCD"><CheckValue>HYPOTENS</CheckValue></RangeCheck></def:WhereClauseDef><def:WhereClauseDef OID="WC.FACE.FATESTCD.HYVENTR"><RangeCheck Comparator="EQ" SoftHard="Soft" def:ItemOID="IT.FACE.FATESTCD"><CheckValue>HYVENTR</CheckValue></RangeCheck></def:WhereClauseDef><def:WhereClauseDef OID="WC.FACE.FATESTCD.INCRDIU"><RangeCheck Comparator="EQ" SoftHard="Soft" def:ItemOID="IT.FACE.FATESTCD"><CheckValue>INCRDIU</CheckValue></RangeCheck></def:WhereClauseDef><def:WhereClauseDef OID="WC.FACE.FATESTCD.INJSITPN"><RangeCheck Comparator="EQ" SoftHard="Soft" def:ItemOID="IT.FACE.FATESTCD"><CheckValue>INJSITPN</CheckValue></RangeCheck></def:WhereClauseDef><def:WhereClauseDef OID="WC.FACE.FATESTCD.LESTREST"><RangeCheck Comparator="EQ" SoftHard="Soft" def:ItemOID="IT.FACE.FATESTCD"><CheckValue>LESTREST</CheckValue></RangeCheck></def:WhereClauseDef><def:WhereClauseDef OID="WC.FACE.FATESTCD.LIGHTHD"><RangeCheck Comparator="EQ" SoftHard="Soft" def:ItemOID="IT.FACE.FATESTCD"><CheckValue>LIGHTHD</CheckValue></RangeCheck></def:WhereClauseDef><def:WhereClauseDef OID="WC.FACE.FATESTCD.LIMGNORM"><RangeCheck Comparator="EQ" SoftHard="Soft" def:ItemOID="IT.FACE.FATESTCD"><CheckValue>LIMGNORM</CheckValue></RangeCheck></def:WhereClauseDef><def:WhereClauseDef OID="WC.FACE.FATESTCD.LIMGPERF"><RangeCheck Comparator="EQ" SoftHard="Soft" def:ItemOID="IT.FACE.FATESTCD"><CheckValue>LIMGPERF</CheckValue></RangeCheck></def:WhereClauseDef><def:WhereClauseDef OID="WC.FACE.FATESTCD.LOOPEVAL"><RangeCheck Comparator="EQ" SoftHard="Soft" def:ItemOID="IT.FACE.FATESTCD"><CheckValue>LOOPEVAL</CheckValue></RangeCheck></def:WhereClauseDef><def:WhereClauseDef OID="WC.FACE.FATESTCD.LOOPREC"><RangeCheck Comparator="EQ" SoftHard="Soft" def:ItemOID="IT.FACE.FATESTCD"><CheckValue>LOOPREC</CheckValue></RangeCheck></def:WhereClauseDef><def:WhereClauseDef OID="WC.FACE.FATESTCD.LVEVTSAE"><RangeCheck Comparator="EQ" SoftHard="Soft" def:ItemOID="IT.FACE.FATESTCD"><CheckValue>LVEVTSAE</CheckValue></RangeCheck></def:WhereClauseDef><def:WhereClauseDef OID="WC.FACE.FATESTCD.MEDADM"><RangeCheck Comparator="EQ" SoftHard="Soft" def:ItemOID="IT.FACE.FATESTCD"><CheckValue>MEDADM</CheckValue></RangeCheck></def:WhereClauseDef><def:WhereClauseDef OID="WC.FACE.FATESTCD.MEDGIVEN"><RangeCheck Comparator="EQ" SoftHard="Soft" def:ItemOID="IT.FACE.FATESTCD"><CheckValue>MEDGIVEN</CheckValue></RangeCheck></def:WhereClauseDef><def:WhereClauseDef OID="WC.FACE.FATESTCD.MIUAMED"><RangeCheck Comparator="EQ" SoftHard="Soft" def:ItemOID="IT.FACE.FATESTCD"><CheckValue>MIUAMED</CheckValue></RangeCheck></def:WhereClauseDef><def:WhereClauseDef OID="WC.FACE.FATESTCD.MIVALABD"><RangeCheck Comparator="EQ" SoftHard="Soft" def:ItemOID="IT.FACE.FATESTCD"><CheckValue>MIVALABD</CheckValue></RangeCheck></def:WhereClauseDef><def:WhereClauseDef OID="WC.FACE.FATESTCD.MIVALABN"><RangeCheck Comparator="EQ" SoftHard="Soft" def:ItemOID="IT.FACE.FATESTCD"><CheckValue>MIVALABN</CheckValue></RangeCheck></def:WhereClauseDef><def:WhereClauseDef OID="WC.FACE.FATESTCD.NEWMED"><RangeCheck Comparator="EQ" SoftHard="Soft" def:ItemOID="IT.FACE.FATESTCD"><CheckValue>NEWMED</CheckValue></RangeCheck></def:WhereClauseDef><def:WhereClauseDef OID="WC.FACE.FATESTCD.NYSTAG"><RangeCheck Comparator="EQ" SoftHard="Soft" def:ItemOID="IT.FACE.FATESTCD"><CheckValue>NYSTAG</CheckValue></RangeCheck></def:WhereClauseDef><def:WhereClauseDef OID="WC.FACE.FATESTCD.NYSTAGD"><RangeCheck Comparator="EQ" SoftHard="Soft" def:ItemOID="IT.FACE.FATESTCD"><CheckValue>NYSTAGD</CheckValue></RangeCheck></def:WhereClauseDef><def:WhereClauseDef OID="WC.FACE.FATESTCD.OTSYMDVT"><RangeCheck Comparator="EQ" SoftHard="Soft" def:ItemOID="IT.FACE.FATESTCD"><CheckValue>OTSYMDVT</CheckValue></RangeCheck></def:WhereClauseDef><def:WhereClauseDef OID="WC.FACE.FATESTCD.OTSYMPE"><RangeCheck Comparator="EQ" SoftHard="Soft" def:ItemOID="IT.FACE.FATESTCD"><CheckValue>OTSYMPE</CheckValue></RangeCheck></def:WhereClauseDef><def:WhereClauseDef OID="WC.FACE.FATESTCD.PACEEVALL"><RangeCheck Comparator="EQ" SoftHard="Soft" def:ItemOID="IT.FACE.FATESTCD"><CheckValue>PACEEVAL</CheckValue></RangeCheck></def:WhereClauseDef><def:WhereClauseDef OID="WC.FACE.FATESTCD.PACEICD"><RangeCheck Comparator="EQ" SoftHard="Soft" def:ItemOID="IT.FACE.FATESTCD"><CheckValue>PACEICD</CheckValue></RangeCheck></def:WhereClauseDef><def:WhereClauseDef OID="WC.FACE.FATESTCD.PALP"><RangeCheck Comparator="EQ" SoftHard="Soft" def:ItemOID="IT.FACE.FATESTCD"><CheckValue>PALP</CheckValue></RangeCheck></def:WhereClauseDef><def:WhereClauseDef OID="WC.FACE.FATESTCD.PERCINT"><RangeCheck Comparator="EQ" SoftHard="Soft" def:ItemOID="IT.FACE.FATESTCD"><CheckValue>PERCINT</CheckValue></RangeCheck></def:WhereClauseDef><def:WhereClauseDef OID="WC.FACE.FATESTCD.PLECPAIN"><RangeCheck Comparator="EQ" SoftHard="Soft" def:ItemOID="IT.FACE.FATESTCD"><CheckValue>PLECPAIN</CheckValue></RangeCheck></def:WhereClauseDef><def:WhereClauseDef OID="WC.FACE.FATESTCD.POSALAE"><RangeCheck Comparator="EQ" SoftHard="Soft" def:ItemOID="IT.FACE.FATESTCD"><CheckValue>POSALAE</CheckValue></RangeCheck></def:WhereClauseDef><def:WhereClauseDef OID="WC.FACE.FATESTCD.PREGNANT"><RangeCheck Comparator="EQ" SoftHard="Soft" def:ItemOID="IT.FACE.FATESTCD"><CheckValue>PREGNANT</CheckValue></RangeCheck></def:WhereClauseDef><def:WhereClauseDef OID="WC.FACE.FATESTCD.PULSLOSS"><RangeCheck Comparator="EQ" SoftHard="Soft" def:ItemOID="IT.FACE.FATESTCD"><CheckValue>PULSLOSS</CheckValue></RangeCheck></def:WhereClauseDef><def:WhereClauseDef OID="WC.FACE.FATESTCD.PUVALABD"><RangeCheck Comparator="EQ" SoftHard="Soft" def:ItemOID="IT.FACE.FATESTCD"><CheckValue>PUVALABD</CheckValue></RangeCheck></def:WhereClauseDef><def:WhereClauseDef OID="WC.FACE.FATESTCD.PUVALABN"><RangeCheck Comparator="EQ" SoftHard="Soft" def:ItemOID="IT.FACE.FATESTCD"><CheckValue>PUVALABN</CheckValue></RangeCheck></def:WhereClauseDef><def:WhereClauseDef OID="WC.FACE.FATESTCD.RHYTEL"><RangeCheck Comparator="EQ" SoftHard="Soft" def:ItemOID="IT.FACE.FATESTCD"><CheckValue>RHYTEL</CheckValue></RangeCheck></def:WhereClauseDef><def:WhereClauseDef OID="WC.FACE.FATESTCD.RHYTEVAL"><RangeCheck Comparator="EQ" SoftHard="Soft" def:ItemOID="IT.FACE.FATESTCD"><CheckValue>RHYTEVAL</CheckValue></RangeCheck></def:WhereClauseDef><def:WhereClauseDef OID="WC.FACE.FATESTCD.RKPRES"><RangeCheck Comparator="EQ" SoftHard="Soft" def:ItemOID="IT.FACE.FATESTCD"><CheckValue>RKPRES</CheckValue></RangeCheck></def:WhereClauseDef><def:WhereClauseDef OID="WC.FACE.FATESTCD.RSPOSNAE"><RangeCheck Comparator="EQ" SoftHard="Soft" def:ItemOID="IT.FACE.FATESTCD"><CheckValue>RSPOSNAE</CheckValue></RangeCheck></def:WhereClauseDef><def:WhereClauseDef OID="WC.FACE.FATESTCD.RSPOSNCJ"><RangeCheck Comparator="EQ" SoftHard="Soft" def:ItemOID="IT.FACE.FATESTCD"><CheckValue>RSPOSNCJ</CheckValue></RangeCheck></def:WhereClauseDef><def:WhereClauseDef OID="WC.FACE.FATESTCD.SBREATH"><RangeCheck Comparator="EQ" SoftHard="Soft" def:ItemOID="IT.FACE.FATESTCD"><CheckValue>SBREATH</CheckValue></RangeCheck></def:WhereClauseDef><def:WhereClauseDef OID="WC.FACE.FATESTCD.SENLOSLD"><RangeCheck Comparator="EQ" SoftHard="Soft" def:ItemOID="IT.FACE.FATESTCD"><CheckValue>SENLOSLD</CheckValue></RangeCheck></def:WhereClauseDef><def:WhereClauseDef OID="WC.FACE.FATESTCD.SENLOSRD"><RangeCheck Comparator="EQ" SoftHard="Soft" def:ItemOID="IT.FACE.FATESTCD"><CheckValue>SENLOSRD</CheckValue></RangeCheck></def:WhereClauseDef><def:WhereClauseDef OID="WC.FACE.FATESTCD.SENLOSSL"><RangeCheck Comparator="EQ" SoftHard="Soft" def:ItemOID="IT.FACE.FATESTCD"><CheckValue>SENLOSSL</CheckValue></RangeCheck></def:WhereClauseDef><def:WhereClauseDef OID="WC.FACE.FATESTCD.SENLOSSR"><RangeCheck Comparator="EQ" SoftHard="Soft" def:ItemOID="IT.FACE.FATESTCD"><CheckValue>SENLOSSR</CheckValue></RangeCheck></def:WhereClauseDef><def:WhereClauseDef OID="WC.FACE.FATESTCD.SEQUEL"><RangeCheck Comparator="EQ" SoftHard="Soft" def:ItemOID="IT.FACE.FATESTCD"><CheckValue>SEQUEL</CheckValue></RangeCheck></def:WhereClauseDef><def:WhereClauseDef OID="WC.FACE.FATESTCD.SEVBRTH"><RangeCheck 